subj,trial,id,f1_l,f2_l,f3_l,f1_r,f2_r,f3_r,resp,rt,n,nd,nc,critical,train
s101,1,37,1,0,1,1,1,0,0.659000015,4.8425,3,2,1,FALSE,TRUE
s101,2,71,1,1,0,1,0,0,0.623000031,10.0849,2,1,1,FALSE,TRUE
s101,3,65,0,1,1,1,1,1,0.623000031,4.9376,3,1,2,TRUE,TRUE
s101,4,44,0,0,1,0,0,1,0.998000031,5.1434,2,0,2,FALSE,FALSE
s101,5,67,0,1,1,1,1,0,0.112000008,3.2026,3,2,1,FALSE,TRUE
s101,6,11,1,0,0,1,0,0,0.996000061,2.6037,1,0,1,FALSE,FALSE
s101,7,85,0,1,0,1,1,1,0.240999985,4.9171,3,2,1,FALSE,TRUE
s101,8,81,0,1,0,1,0,0,0.049000015,3.9,2,2,0,FALSE,FALSE
s101,9,74,1,1,0,0,0,1,0.049000015,3.5256,3,3,0,FALSE,FALSE
s101,10,56,1,1,1,0,1,1,0.663000031,3.849,3,1,2,TRUE,TRUE
s101,11,27,0,0,0,1,1,0,0.095,3.0547,2,2,0,FALSE,FALSE
s101,12,28,0,0,0,0,1,0,0.45,5.4804,2,1,1,FALSE,TRUE
s101,13,64,0,1,1,0,0,1,0.354000015,6.9443,3,1,2,FALSE,TRUE
s101,14,57,1,1,1,1,1,0,0.293000031,2.3739,3,1,2,FALSE,TRUE
s101,15,15,1,0,0,1,1,1,0.293000031,3.2134,3,2,1,FALSE,TRUE
s101,16,12,1,0,0,0,0,0,0.208000031,3.2513,1,1,0,TRUE,FALSE
s101,17,14,1,0,0,0,0,1,0.208000031,1.7449,2,2,0,FALSE,FALSE
s101,18,76,1,1,0,0,1,1,0.208000031,1.9781,3,2,1,FALSE,TRUE
s101,19,18,1,0,0,0,1,0,0.208000031,1.8466,2,2,0,FALSE,FALSE
s101,20,84,0,1,0,0,0,1,0.208000031,2.024,3,2,1,FALSE,TRUE
s101,21,53,1,1,1,1,0,1,0.475999985,2.9562,3,1,2,FALSE,TRUE
s101,22,88,0,1,0,0,1,0,0.998000031,3.1883,2,0,2,FALSE,FALSE
s101,23,45,0,0,1,1,1,1,0.15,2.8974,3,2,1,FALSE,TRUE
s101,24,16,1,0,0,0,1,1,0.167000008,2.1028,3,3,0,FALSE,FALSE
s101,25,48,0,0,1,0,1,0,0.167000008,1.5638,3,2,1,FALSE,TRUE
s101,26,46,0,0,1,0,1,1,0.453000031,4.0615,3,1,2,FALSE,TRUE
s101,27,52,1,1,1,0,0,0,0.253000031,2.3044,3,3,0,FALSE,FALSE
s101,28,66,0,1,1,0,1,1,0.994000092,2.8993,3,0,3,FALSE,FALSE
s101,29,33,1,0,1,1,0,1,0.994000092,1.6942,2,0,2,FALSE,FALSE
s101,30,17,1,0,0,1,1,0,0.487000046,3.3376,2,1,1,FALSE,TRUE
s101,31,42,0,0,1,0,0,0,0.409000015,2.4761,2,1,1,FALSE,TRUE
s101,32,68,0,1,1,0,1,0,0.409000015,1.5439,3,1,2,FALSE,TRUE
s101,33,87,0,1,0,1,1,0,0.738000031,3.603,2,1,1,TRUE,TRUE
s101,34,43,0,0,1,1,0,1,0.738000031,2.3812,2,1,1,TRUE,TRUE
s101,35,32,1,0,1,0,0,0,0.28,2.4459,2,2,0,FALSE,FALSE
s101,36,41,0,0,1,1,0,0,0.28,1.6052,2,2,0,FALSE,FALSE
s101,37,23,0,0,0,1,0,1,0.28,1.6302,2,2,0,FALSE,FALSE
s101,38,75,1,1,0,1,1,1,0.508000031,3.054,3,1,2,FALSE,TRUE
s101,39,47,0,0,1,1,1,0,0.448000031,2.1236,3,3,0,FALSE,FALSE
s101,40,78,1,1,0,0,1,0,0.613000031,3.2603,2,1,1,TRUE,TRUE
s101,41,13,1,0,0,1,0,1,0.613000031,2.6864,2,1,1,FALSE,TRUE
s101,42,73,1,1,0,1,0,1,0.4,2.5456,3,2,1,FALSE,TRUE
s101,43,21,0,0,0,1,0,0,0.395999985,1.9974,1,1,0,TRUE,FALSE
s101,44,36,1,0,1,0,1,1,0.395999985,2.5396,3,2,1,FALSE,TRUE
s101,45,24,0,0,0,0,0,1,0.504000015,2.9292,2,1,1,FALSE,TRUE
s101,46,83,0,1,0,1,0,1,0.4,2.1561,3,3,0,FALSE,FALSE
s101,47,26,0,0,0,0,1,1,0.4,1.4779,3,2,1,FALSE,TRUE
s101,48,77,1,1,0,1,1,0,0.996000061,3.0969,2,0,2,FALSE,FALSE
s101,49,35,1,0,1,1,1,1,0.623000031,2.4395,3,1,2,FALSE,TRUE
s101,50,58,1,1,1,0,1,0,0.355,2.1696,3,2,1,FALSE,TRUE
s101,51,72,1,1,0,0,0,0,0.355,1.5251,2,2,0,FALSE,FALSE
s101,52,62,0,1,1,0,0,0,0.517000046,2.5056,3,2,1,FALSE,TRUE
s101,53,38,1,0,1,0,1,0,0.517000046,1.7723,3,3,0,FALSE,FALSE
s101,54,51,1,1,1,1,0,0,0.517000046,2.171,3,2,1,FALSE,TRUE
s101,55,31,1,0,1,1,0,0,0.563000031,2.5404,2,1,1,FALSE,TRUE
s101,56,63,0,1,1,1,0,1,0.427000046,2.9078,3,2,1,FALSE,TRUE
s101,57,25,0,0,0,1,1,1,0.427000046,1.4757,3,3,0,FALSE,FALSE
s101,58,22,0,0,0,0,0,0,0.999000092,2.8846,1,0,1,FALSE,FALSE
s101,59,55,1,1,1,1,1,1,0.994000092,3.8181,3,0,3,FALSE,FALSE
s101,60,54,1,1,1,0,0,1,0.404000015,3.2712,3,2,1,FALSE,TRUE
s101,61,61,0,1,1,1,0,0,0.404000015,1.6661,3,3,0,FALSE,FALSE
s101,62,86,0,1,0,0,1,1,0.502000046,3.1,3,1,2,FALSE,TRUE
s101,63,82,0,1,0,0,0,0,0.475999985,2.6358,2,1,1,FALSE,TRUE
s101,64,34,1,0,1,0,0,1,0.475999985,2.2613,2,1,1,TRUE,TRUE
s101,65,84,0,1,0,0,0,1,0.475999985,1.8652,3,2,1,FALSE,TRUE
s101,66,15,1,0,0,1,1,1,0.475999985,1.4603,3,2,1,FALSE,TRUE
s101,67,35,1,0,1,1,1,1,0.524000015,2.9601,3,1,2,FALSE,TRUE
s101,68,18,1,0,0,0,1,0,0.524000015,3.2465,2,2,0,FALSE,FALSE
s101,69,26,0,0,0,0,1,1,0.397000046,2.714,3,2,1,FALSE,TRUE
s101,70,61,0,1,1,1,0,0,0.397000046,2.0776,3,3,0,FALSE,FALSE
s101,71,73,1,1,0,1,0,1,0.397000046,1.6462,3,2,1,FALSE,TRUE
s101,72,85,0,1,0,1,1,1,0.397000046,2.6691,3,2,1,FALSE,TRUE
s101,73,43,0,0,1,1,0,1,0.397000046,2.0772,2,1,1,TRUE,TRUE
s101,74,65,0,1,1,1,1,1,0.644000015,3.0815,3,1,2,TRUE,TRUE
s101,75,23,0,0,0,1,0,1,0.375999985,2.479,2,2,0,FALSE,FALSE
s101,76,46,0,0,1,0,1,1,0.805999985,3.6083,3,1,2,FALSE,TRUE
s101,77,45,0,0,1,1,1,1,0.359000015,2.4709,3,2,1,FALSE,TRUE
s101,78,33,1,0,1,1,0,1,0.999000092,3.1126,2,0,2,FALSE,FALSE
s101,79,63,0,1,1,1,0,1,0.308000031,2.5418,3,2,1,FALSE,TRUE
s101,80,24,0,0,0,0,0,1,0.507000046,2.8917,2,1,1,FALSE,TRUE
s101,81,68,0,1,1,0,1,0,0.455999985,3.1309,3,1,2,FALSE,TRUE
s101,82,32,1,0,1,0,0,0,0.455999985,1.5348,2,2,0,FALSE,FALSE
s101,83,28,0,0,0,0,1,0,0.657000046,2.7055,2,1,1,FALSE,TRUE
s101,84,86,0,1,0,0,1,1,0.613000031,2.3455,3,1,2,FALSE,TRUE
s101,85,88,0,1,0,0,1,0,0.994000092,4.7746,2,0,2,FALSE,FALSE
s101,86,75,1,1,0,1,1,1,0.482000046,2.4639,3,1,2,FALSE,TRUE
s101,87,67,0,1,1,1,1,0,0.482000046,1.3806,3,2,1,FALSE,TRUE
s101,88,47,0,0,1,1,1,0,0.482000046,1.6641,3,3,0,FALSE,FALSE
s101,89,16,1,0,0,0,1,1,0.482000046,1.4958,3,3,0,FALSE,FALSE
s101,90,82,0,1,0,0,0,0,0.497000046,4.7365,2,1,1,FALSE,TRUE
s101,91,77,1,1,0,1,1,0,0.996999969,2.7026,2,0,2,FALSE,FALSE
s101,92,41,0,0,1,1,0,0,0.463000031,2.0987,2,2,0,FALSE,FALSE
s101,93,42,0,0,1,0,0,0,0.629000015,2.0147,2,1,1,FALSE,TRUE
s101,94,57,1,1,1,1,1,0,0.572000046,2.5049,3,1,2,FALSE,TRUE
s101,95,51,1,1,1,1,0,0,0.572000046,1.6414,3,2,1,FALSE,TRUE
s101,96,71,1,1,0,1,0,0,0.572000046,1.3827,2,1,1,FALSE,TRUE
s101,97,13,1,0,0,1,0,1,0.572000046,2.0746,2,1,1,FALSE,TRUE
s101,98,25,0,0,0,1,1,1,0.474000015,2.1966,3,3,0,FALSE,FALSE
s101,99,54,1,1,1,0,0,1,0.474000015,1.6907,3,2,1,FALSE,TRUE
s101,100,21,0,0,0,1,0,0,0.474000015,1.9958,1,1,0,TRUE,FALSE
s101,101,62,0,1,1,0,0,0,0.474000015,1.6278,3,2,1,FALSE,TRUE
s101,102,31,1,0,1,1,0,0,0.66,2.6199,2,1,1,FALSE,TRUE
s101,103,78,1,1,0,0,1,0,0.584000015,3.2905,2,1,1,TRUE,TRUE
s101,104,11,1,0,0,1,0,0,0.99,3.5999,1,0,1,FALSE,FALSE
s101,105,58,1,1,1,0,1,0,0.367000046,2.8828,3,2,1,FALSE,TRUE
s101,106,22,0,0,0,0,0,0,0.993000031,2.4107,1,0,1,FALSE,FALSE
s101,107,74,1,1,0,0,0,1,0.408000031,2.4147,3,3,0,FALSE,FALSE
s101,108,66,0,1,1,0,1,1,0.993000031,2.7876,3,0,3,FALSE,FALSE
s101,109,34,1,0,1,0,0,1,0.365,4.4217,2,1,1,TRUE,TRUE
s101,110,83,0,1,0,1,0,1,0.344000015,2.0084,3,3,0,FALSE,FALSE
s101,111,87,0,1,0,1,1,0,0.344000015,2.0863,2,1,1,TRUE,TRUE
s101,112,48,0,0,1,0,1,0,0.344000015,1.7036,3,2,1,FALSE,TRUE
s101,113,76,1,1,0,0,1,1,0.344000015,1.2893,3,2,1,FALSE,TRUE
s101,114,72,1,1,0,0,0,0,0.344000015,1.8168,2,2,0,FALSE,FALSE
s101,115,17,1,0,0,1,1,0,0.585,3.5929,2,1,1,FALSE,TRUE
s101,116,52,1,1,1,0,0,0,0.415,3.7574,3,3,0,FALSE,FALSE
s101,117,64,0,1,1,0,0,1,0.515999985,2.2823,3,1,2,FALSE,TRUE
s101,118,36,1,0,1,0,1,1,0.445999985,4.6678,3,2,1,FALSE,TRUE
s101,119,53,1,1,1,1,0,1,0.445999985,1.589,3,1,2,FALSE,TRUE
s101,120,56,1,1,1,0,1,1,0.445999985,1.7377,3,1,2,TRUE,TRUE
s101,121,44,0,0,1,0,0,1,0.994000092,3.1219,2,0,2,FALSE,FALSE
s101,122,12,1,0,0,0,0,0,0.222000046,3.3018,1,1,0,TRUE,FALSE
s101,123,14,1,0,0,0,0,1,0.222000046,1.5491,2,2,0,FALSE,FALSE
s101,124,37,1,0,1,1,1,0,0.222000046,1.33,3,2,1,FALSE,TRUE
s101,125,81,0,1,0,1,0,0,0.222000046,1.3715,2,2,0,FALSE,FALSE
s101,126,27,0,0,0,1,1,0,0.222000046,1.4899,2,2,0,FALSE,FALSE
s101,127,38,1,0,1,0,1,0,0.222000046,1.4912,3,3,0,FALSE,FALSE
s101,128,55,1,1,1,1,1,1,0.986999969,3.004,3,0,3,FALSE,FALSE
s102,1,15,1,0,0,1,1,1,0.224000015,9.0687,3,2,1,FALSE,TRUE
s102,2,77,1,1,0,1,1,0,0.998000031,7.9227,2,0,2,FALSE,FALSE
s102,3,82,0,1,0,0,0,0,0.370999985,8.4735,2,1,1,FALSE,TRUE
s102,4,23,0,0,0,1,0,1,0.002999992,6.5909,2,2,0,FALSE,FALSE
s102,5,45,0,0,1,1,1,1,0.077000008,5.7513,3,2,1,FALSE,TRUE
s102,6,14,1,0,0,0,0,1,0.004000015,8.2675,2,2,0,FALSE,FALSE
s102,7,12,1,0,0,0,0,0,0.049000015,5.4011,1,1,0,TRUE,FALSE
s102,8,41,0,0,1,1,0,0,0.002999992,5.1484,2,2,0,FALSE,FALSE
s102,9,34,1,0,1,0,0,1,0.180999985,7.1807,2,1,1,TRUE,TRUE
s102,10,51,1,1,1,1,0,0,0.137000008,5.8225,3,2,1,FALSE,TRUE
s102,11,36,1,0,1,0,1,1,0.102000008,7.1891,3,2,1,FALSE,TRUE
s102,12,56,1,1,1,0,1,1,0.355999985,5.2931,3,1,2,TRUE,TRUE
s102,13,26,0,0,0,0,1,1,0.304000015,6.7474,3,2,1,FALSE,TRUE
s102,14,72,1,1,0,0,0,0,0.006000023,4.4358,2,2,0,FALSE,FALSE
s102,15,32,1,0,1,0,0,0,0.005,4.3274,2,2,0,FALSE,FALSE
s102,16,25,0,0,0,1,1,1,0.004000015,5.0483,3,3,0,FALSE,FALSE
s102,17,33,1,0,1,1,0,1,0.994000092,4.1607,2,0,2,FALSE,FALSE
s102,18,16,1,0,0,0,1,1,0.002000008,4.3016,3,3,0,FALSE,FALSE
s102,19,75,1,1,0,1,1,1,0.762000046,7.1505,3,1,2,FALSE,TRUE
s102,20,71,1,1,0,1,0,0,0.647000046,7.3722,2,1,1,FALSE,TRUE
s102,21,48,0,0,1,0,1,0,0.534000015,8.0077,3,2,1,FALSE,TRUE
s102,22,84,0,1,0,0,0,1,0.544000015,4.7001,3,2,1,FALSE,TRUE
s102,23,52,1,1,1,0,0,0,0.002999992,3.5904,3,3,0,FALSE,FALSE
s102,24,81,0,1,0,1,0,0,0.002999992,3.1976,2,2,0,FALSE,FALSE
s102,25,76,1,1,0,0,1,1,0.136000023,8.8032,3,2,1,FALSE,TRUE
s102,26,35,1,0,1,1,1,1,0.522000046,7.1378,3,1,2,FALSE,TRUE
s102,27,85,0,1,0,1,1,1,0.233000031,7.6439,3,2,1,FALSE,TRUE
s102,28,68,0,1,1,0,1,0,0.734000015,5.5863,3,1,2,FALSE,TRUE
s102,29,22,0,0,0,0,0,0,0.994000092,2.537,1,0,1,FALSE,FALSE
s102,30,66,0,1,1,0,1,1,0.991000061,4.9363,3,0,3,FALSE,FALSE
s102,31,43,0,0,1,1,0,1,0.41,13.7257,2,1,1,TRUE,TRUE
s102,32,37,1,0,1,1,1,0,0.520999985,5.386,3,2,1,FALSE,TRUE
s102,33,42,0,0,1,0,0,0,0.682000046,4.8512,2,1,1,FALSE,TRUE
s102,34,31,1,0,1,1,0,0,0.719000015,3.3335,2,1,1,FALSE,TRUE
s102,35,11,1,0,0,1,0,0,0.995,4.1987,1,0,1,FALSE,FALSE
s102,36,86,0,1,0,0,1,1,0.797000046,4.6686,3,1,2,FALSE,TRUE
s102,37,13,1,0,0,1,0,1,0.829000092,5.5641,2,1,1,FALSE,TRUE
s102,38,28,0,0,0,0,1,0,0.807000046,3.7402,2,1,1,FALSE,TRUE
s102,39,57,1,1,1,1,1,0,0.871000061,5.4227,3,1,2,FALSE,TRUE
s102,40,47,0,0,1,1,1,0,0.002999992,5.7233,3,3,0,FALSE,FALSE
s102,41,53,1,1,1,1,0,1,0.763000031,5.3843,3,1,2,FALSE,TRUE
s102,42,87,0,1,0,1,1,0,0.425999985,6.9737,2,1,1,TRUE,TRUE
s102,43,74,1,1,0,0,0,1,0.004000015,4.6234,3,3,0,FALSE,FALSE
s102,44,67,0,1,1,1,1,0,0.229000015,11.4411,3,2,1,FALSE,TRUE
s102,45,54,1,1,1,0,0,1,0.187000046,6.2972,3,2,1,FALSE,TRUE
s102,46,61,0,1,1,1,0,0,0.002999992,4.6051,3,3,0,FALSE,FALSE
s102,47,24,0,0,0,0,0,1,0.637000046,5.6475,2,1,1,FALSE,TRUE
s102,48,63,0,1,1,1,0,1,0.185,6.8001,3,2,1,FALSE,TRUE
s102,49,55,1,1,1,1,1,1,0.996000061,4.7344,3,0,3,FALSE,FALSE
s102,50,18,1,0,0,0,1,0,0.001000023,4.4011,2,2,0,FALSE,FALSE
s102,51,27,0,0,0,1,1,0,0.002000008,4.1951,2,2,0,FALSE,FALSE
s102,52,62,0,1,1,0,0,0,0.208000031,5.4147,3,2,1,FALSE,TRUE
s102,53,65,0,1,1,1,1,1,0.630999985,5.1491,3,1,2,TRUE,TRUE
s102,54,58,1,1,1,0,1,0,0.209000015,8.0036,3,2,1,FALSE,TRUE
s102,55,64,0,1,1,0,0,1,0.609000015,5.6738,3,1,2,FALSE,TRUE
s102,56,83,0,1,0,1,0,1,0.001000023,5.2869,3,3,0,FALSE,FALSE
s102,57,46,0,0,1,0,1,1,0.674000015,6.0851,3,1,2,FALSE,TRUE
s102,58,88,0,1,0,0,1,0,0.996000061,4.4231,2,0,2,FALSE,FALSE
s102,59,78,1,1,0,0,1,0,0.439000015,6.0175,2,1,1,TRUE,TRUE
s102,60,73,1,1,0,1,0,1,0.387000046,6.4829,3,2,1,FALSE,TRUE
s102,61,44,0,0,1,0,0,1,0.996000061,3.342,2,0,2,FALSE,FALSE
s102,62,17,1,0,0,1,1,0,0.480999985,6.0185,2,1,1,FALSE,TRUE
s102,63,38,1,0,1,0,1,0,0.006000023,5.815,3,3,0,FALSE,FALSE
s102,64,21,0,0,0,1,0,0,0.016000023,7.8574,1,1,0,TRUE,FALSE
s102,65,81,0,1,0,1,0,0,0.006000023,6.648,2,2,0,FALSE,FALSE
s102,66,72,1,1,0,0,0,0,0.012000008,4.7042,2,2,0,FALSE,FALSE
s102,67,26,0,0,0,0,1,1,0.345999985,5.3913,3,2,1,FALSE,TRUE
s102,68,86,0,1,0,0,1,1,0.725,5.1432,3,1,2,FALSE,TRUE
s102,69,42,0,0,1,0,0,0,0.715999985,4.0179,2,1,1,FALSE,TRUE
s102,70,21,0,0,0,1,0,0,0.006000023,3.6924,1,1,0,TRUE,FALSE
s102,71,17,1,0,0,1,1,0,0.580999985,3.2206,2,1,1,FALSE,TRUE
s102,72,62,0,1,1,0,0,0,0.099000015,6.8505,3,2,1,FALSE,TRUE
s102,73,24,0,0,0,0,0,1,0.685,3.5704,2,1,1,FALSE,TRUE
s102,74,83,0,1,0,1,0,1,0.012999992,4.7642,3,3,0,FALSE,FALSE
s102,75,84,0,1,0,0,0,1,0.253000031,4.6002,3,2,1,FALSE,TRUE
s102,76,75,1,1,0,1,1,1,0.81,6.0148,3,1,2,FALSE,TRUE
s102,77,66,0,1,1,0,1,1,0.995,3.6654,3,0,3,FALSE,FALSE
s102,78,15,1,0,0,1,1,1,0.099000015,6.1283,3,2,1,FALSE,TRUE
s102,79,36,1,0,1,0,1,1,0.019000015,4.6682,3,2,1,FALSE,TRUE
s102,80,45,0,0,1,1,1,1,0.007000008,6.5562,3,2,1,FALSE,TRUE
s102,81,47,0,0,1,1,1,0,0.004000015,3.8844,3,3,0,FALSE,FALSE
s102,82,56,1,1,1,0,1,1,0.844000092,7.3635,3,1,2,TRUE,TRUE
s102,83,82,0,1,0,0,0,0,0.635999985,6.1098,2,1,1,FALSE,TRUE
s102,84,41,0,0,1,1,0,0,0.002999992,3.4849,2,2,0,FALSE,FALSE
s102,85,38,1,0,1,0,1,0,0.005,5.1567,3,3,0,FALSE,FALSE
s102,86,37,1,0,1,1,1,0,0.307000046,7.9989,3,2,1,FALSE,TRUE
s102,87,61,0,1,1,1,0,0,0.004000015,3.2821,3,3,0,FALSE,FALSE
s102,88,78,1,1,0,0,1,0,0.35,7.0491,2,1,1,TRUE,TRUE
s102,89,74,1,1,0,0,0,1,0.002999992,4.0492,3,3,0,FALSE,FALSE
s102,90,65,0,1,1,1,1,1,0.63,4.7723,3,1,2,TRUE,TRUE
s102,91,12,1,0,0,0,0,0,0.001000023,3.5512,1,1,0,TRUE,FALSE
s102,92,54,1,1,1,0,0,1,0.162999992,4.8851,3,2,1,FALSE,TRUE
s102,93,43,0,0,1,1,0,1,0.192000046,5.2754,2,1,1,TRUE,TRUE
s102,94,23,0,0,0,1,0,1,0.005,3.172,2,2,0,FALSE,FALSE
s102,95,64,0,1,1,0,0,1,0.597000046,5.7408,3,1,2,FALSE,TRUE
s102,96,57,1,1,1,1,1,0,0.615,4.9751,3,1,2,FALSE,TRUE
s102,97,14,1,0,0,0,0,1,0.001000023,3.8801,2,2,0,FALSE,FALSE
s102,98,34,1,0,1,0,0,1,0.505,5.0625,2,1,1,TRUE,TRUE
s102,99,68,0,1,1,0,1,0,0.684000015,3.6066,3,1,2,FALSE,TRUE
s102,100,11,1,0,0,1,0,0,0.993000031,3.7679,1,0,1,FALSE,FALSE
s102,101,35,1,0,1,1,1,1,0.635,6.1509,3,1,2,FALSE,TRUE
s102,102,58,1,1,1,0,1,0,0.082000008,5.3572,3,2,1,FALSE,TRUE
s102,103,88,0,1,0,0,1,0,0.994000092,3.2334,2,0,2,FALSE,FALSE
s102,104,13,1,0,0,1,0,1,0.685,2.9889,2,1,1,FALSE,TRUE
s102,105,46,0,0,1,0,1,1,0.737000046,5.1077,3,1,2,FALSE,TRUE
s102,106,85,0,1,0,1,1,1,0.114000015,6.2537,3,2,1,FALSE,TRUE
s102,107,67,0,1,1,1,1,0,0.055,6.742,3,2,1,FALSE,TRUE
s102,108,28,0,0,0,0,1,0,0.597000046,5.2934,2,1,1,FALSE,TRUE
s102,109,27,0,0,0,1,1,0,0.002000008,3.52,2,2,0,FALSE,FALSE
s102,110,44,0,0,1,0,0,1,0.994000092,3.8587,2,0,2,FALSE,FALSE
s102,111,25,0,0,0,1,1,1,0.002999992,3.8517,3,3,0,FALSE,FALSE
s102,112,32,1,0,1,0,0,0,0.005,2.8404,2,2,0,FALSE,FALSE
s102,113,53,1,1,1,1,0,1,0.564000015,5.1429,3,1,2,FALSE,TRUE
s102,114,33,1,0,1,1,0,1,0.994000092,3.6055,2,0,2,FALSE,FALSE
s102,115,18,1,0,0,0,1,0,0.004000015,3.7208,2,2,0,FALSE,FALSE
s102,116,76,1,1,0,0,1,1,0.097000008,4.2744,3,2,1,FALSE,TRUE
s102,117,77,1,1,0,1,1,0,0.994000092,4.282,2,0,2,FALSE,FALSE
s102,118,16,1,0,0,0,1,1,0.001000023,3.1352,3,3,0,FALSE,FALSE
s102,119,63,0,1,1,1,0,1,0.116000023,4.7568,3,2,1,FALSE,TRUE
s102,120,71,1,1,0,1,0,0,0.575,4.7887,2,1,1,FALSE,TRUE
s102,121,73,1,1,0,1,0,1,0.479000015,4.3512,3,2,1,FALSE,TRUE
s102,122,51,1,1,1,1,0,0,0.224000015,4.4046,3,2,1,FALSE,TRUE
s102,123,87,0,1,0,1,1,0,0.354000015,4.5179,2,1,1,TRUE,TRUE
s102,124,22,0,0,0,0,0,0,0.989000092,3.6095,1,0,1,FALSE,FALSE
s102,125,48,0,0,1,0,1,0,0.455999985,3.968,3,2,1,FALSE,TRUE
s102,126,31,1,0,1,1,0,0,0.564000015,3.0544,2,1,1,FALSE,TRUE
s102,127,52,1,1,1,0,0,0,0.009000015,2.9747,3,3,0,FALSE,FALSE
s102,128,55,1,1,1,1,1,1,0.996999969,4.3731,3,0,3,FALSE,FALSE
s103,1,85,0,1,0,1,1,1,0.415155411,7.4455,3,2,1,FALSE,TRUE
s103,2,26,0,0,0,0,1,1,0.636223379,3.2309,3,2,1,FALSE,TRUE
s103,3,72,1,1,0,0,0,0,0.025787032,4.047,2,2,0,FALSE,FALSE
s103,4,36,1,0,1,0,1,1,0.134099236,5.3306,3,2,1,FALSE,TRUE
s103,5,33,1,0,1,1,0,1,0.999485788,5.8962,2,0,2,FALSE,FALSE
s103,6,44,0,0,1,0,0,1,0.99837486,3.223,2,0,2,FALSE,FALSE
s103,7,35,1,0,1,1,1,1,0.878398293,4.3953,3,1,2,FALSE,TRUE
s103,8,81,0,1,0,1,0,0,0.007457291,4.4092,2,2,0,FALSE,FALSE
s103,9,47,0,0,1,1,1,0,0.007457291,2.1105,3,3,0,FALSE,FALSE
s103,10,58,1,1,1,0,1,0,0.204085567,5.608,3,2,1,FALSE,TRUE
s103,11,78,1,1,0,0,1,0,0.269628262,4.191,2,1,1,TRUE,TRUE
s103,12,16,1,0,0,0,1,1,0.014122631,3.4887,3,3,0,FALSE,FALSE
s103,13,25,0,0,0,1,1,1,0.002458268,3.4819,3,3,0,FALSE,FALSE
s103,14,42,0,0,1,0,0,0,0.752867238,2.4752,2,1,1,FALSE,TRUE
s103,15,57,1,1,1,1,1,0,0.876731901,3.2964,3,1,2,FALSE,TRUE
s103,16,24,0,0,0,0,0,1,0.892839899,2.897,2,1,1,FALSE,TRUE
s103,17,15,1,0,0,1,1,1,0.566237048,3.3987,3,2,1,FALSE,TRUE
s103,18,38,1,0,1,0,1,0,0.016899875,3.8835,3,3,0,FALSE,FALSE
s103,19,34,1,0,1,0,0,1,0.658441253,12.7415,2,1,1,TRUE,TRUE
s103,20,11,1,0,0,1,0,0,0.99837486,8.4894,1,0,1,FALSE,FALSE
s103,21,27,0,0,0,1,1,0,0.003569158,2.8472,2,2,0,FALSE,FALSE
s103,22,17,1,0,0,1,1,0,0.536242906,3.6358,2,1,1,FALSE,TRUE
s103,23,65,0,1,1,1,1,1,0.738425631,5.0201,3,1,2,TRUE,TRUE
s103,24,12,1,0,0,0,0,0,0.001902804,4.5244,1,1,0,TRUE,FALSE
s103,25,75,1,1,0,1,1,1,0.849515079,3.1933,3,1,2,FALSE,TRUE
s103,26,54,1,1,1,0,0,1,0.212417222,3.9363,3,2,1,FALSE,TRUE
s103,27,13,1,0,0,1,0,1,0.728983048,3.0424,2,1,1,FALSE,TRUE
s103,28,53,1,1,1,1,0,1,0.83340708,3.4412,3,1,2,FALSE,TRUE
s103,29,66,0,1,1,0,1,1,0.997819396,6.0941,3,0,3,FALSE,FALSE
s103,30,48,0,0,1,0,1,0,0.340170057,6.0693,3,2,1,FALSE,TRUE
s103,31,73,1,1,0,1,0,1,0.238523268,5.2075,3,2,1,FALSE,TRUE
s103,32,76,1,1,0,0,1,1,0.147985379,5.2149,3,2,1,FALSE,TRUE
s103,33,63,0,1,1,1,0,1,0.087441631,4.0029,3,2,1,FALSE,TRUE
s103,34,51,1,1,1,1,0,0,0.425153458,2.6271,3,2,1,FALSE,TRUE
s103,35,22,0,0,0,0,0,0,0.99837486,5.2288,1,0,1,FALSE,FALSE
s103,36,82,0,1,0,0,0,0,0.783972308,2.7362,2,1,1,FALSE,TRUE
s103,37,23,0,0,0,1,0,1,0.00134734,3.7811,2,2,0,FALSE,FALSE
s103,38,37,1,0,1,1,1,0,0.338503741,4.3407,3,2,1,FALSE,TRUE
s103,39,32,1,0,1,0,0,0,0.000791914,4.7542,2,2,0,FALSE,FALSE
s103,40,83,0,1,0,1,0,1,0.000791914,2.2627,3,3,0,FALSE,FALSE
s103,41,55,1,1,1,1,1,1,0.998930324,4.1477,3,0,3,FALSE,FALSE
s103,42,18,1,0,0,0,1,0,0.002458268,8.4436,2,2,0,FALSE,FALSE
s103,43,14,1,0,0,0,0,1,0.002458268,1.6569,2,2,0,FALSE,FALSE
s103,44,74,1,1,0,0,0,1,0.002458268,19.7243,3,3,0,FALSE,FALSE
s103,45,71,1,1,0,1,0,0,0.500694277,3.0943,2,1,1,FALSE,TRUE
s103,46,52,1,1,1,0,0,0,0.000791914,3.8912,3,3,0,FALSE,FALSE
s103,47,45,0,0,1,1,1,1,0.161316134,3.0365,3,2,1,FALSE,TRUE
s103,48,28,0,0,0,0,1,0,0.509026008,2.9117,2,1,1,FALSE,TRUE
s103,49,68,0,1,1,0,1,0,0.874510197,2.8981,3,1,2,FALSE,TRUE
s103,50,41,0,0,1,1,0,0,0.00023645,4.494,2,2,0,FALSE,FALSE
s103,51,88,0,1,0,0,1,0,0.998930324,3.2715,2,0,2,FALSE,FALSE
s103,52,77,1,1,0,1,1,0,0.997819396,5.4749,2,0,2,FALSE,FALSE
s103,53,46,0,0,1,0,1,1,0.780084212,2.5528,3,1,2,FALSE,TRUE
s103,54,43,0,0,1,1,0,1,0.62011538,3.1627,2,1,1,TRUE,TRUE
s103,55,87,0,1,0,1,1,0,0.526244859,3.7735,2,1,1,TRUE,TRUE
s103,56,31,1,0,1,1,0,0,0.801746546,2.7938,2,1,1,FALSE,TRUE
s103,57,84,0,1,0,0,0,1,0.556239001,3.8259,3,2,1,FALSE,TRUE
s103,58,61,0,1,1,1,0,0,0.002458268,2.8429,3,3,0,FALSE,FALSE
s103,59,64,0,1,1,0,0,1,0.77841782,4.724,3,1,2,FALSE,TRUE
s103,60,62,0,1,1,0,0,0,0.467367427,2.709,3,2,1,FALSE,TRUE
s103,61,67,0,1,1,1,1,0,0.26407385,6.0079,3,2,1,FALSE,TRUE
s103,62,56,1,1,1,0,1,1,0.721762168,3.8129,3,1,2,TRUE,TRUE
s103,63,86,0,1,0,0,1,1,0.803412938,3.8963,3,1,2,FALSE,TRUE
s103,64,21,0,0,0,1,0,0,0.003569158,4.155,1,1,0,TRUE,FALSE
s103,65,16,1,0,0,0,1,1,0.003569158,1.6406,3,3,0,FALSE,FALSE
s103,66,23,0,0,0,1,0,1,0.003569158,1.9108,2,2,0,FALSE,FALSE
s103,67,63,0,1,1,1,0,1,0.232413316,3.53,3,2,1,FALSE,TRUE
s103,68,62,0,1,1,0,0,0,0.197975615,4.0031,3,2,1,FALSE,TRUE
s103,69,75,1,1,0,1,1,1,0.80507933,4.4261,3,1,2,FALSE,TRUE
s103,70,53,1,1,1,1,0,1,0.795636747,6.2862,3,1,2,FALSE,TRUE
s103,71,43,0,0,1,1,0,1,0.504582372,5.3617,2,1,1,TRUE,TRUE
s103,72,44,0,0,1,0,0,1,0.999485788,3.0696,2,0,2,FALSE,FALSE
s103,73,14,1,0,0,0,0,1,0.005235473,2.7219,2,2,0,FALSE,FALSE
s103,74,37,1,0,1,1,1,0,0.30184426,3.603,3,2,1,FALSE,TRUE
s103,75,36,1,0,1,0,1,1,0.217416246,4.2701,3,2,1,FALSE,TRUE
s103,76,26,0,0,0,0,1,1,0.176868669,4.7242,3,2,1,FALSE,TRUE
s103,77,84,0,1,0,0,0,1,0.29462338,3.9834,3,2,1,FALSE,TRUE
s103,78,57,1,1,1,1,1,0,0.339059205,17.6598,3,1,2,FALSE,TRUE
s103,79,21,0,0,0,1,0,0,0.00134734,3.4744,1,1,0,TRUE,FALSE
s103,80,85,0,1,0,1,1,1,0.21574993,3.1927,3,2,1,FALSE,TRUE
s103,81,74,1,1,0,0,0,1,0.010234497,14.7358,3,3,0,FALSE,FALSE
s103,82,86,0,1,0,0,1,1,0.75453363,3.0955,3,1,2,FALSE,TRUE
s103,83,55,1,1,1,1,1,1,0.99837486,8.824,3,0,3,FALSE,FALSE
s103,84,54,1,1,1,0,0,1,0.223526197,5.2835,3,2,1,FALSE,TRUE
s103,85,27,0,0,0,1,1,0,0.159649742,1.9665,2,2,0,FALSE,FALSE
s103,86,22,0,0,0,0,0,0,0.997819396,4.3232,1,0,1,FALSE,FALSE
s103,87,77,1,1,0,1,1,0,0.997819396,1.6588,2,0,2,FALSE,FALSE
s103,88,56,1,1,1,0,1,1,0.749534606,4.4265,3,1,2,TRUE,TRUE
s103,89,65,0,1,1,1,1,1,0.75175631,4.4169,3,1,2,TRUE,TRUE
s103,90,32,1,0,1,0,0,0,0.008568181,4.0262,2,2,0,FALSE,FALSE
s103,91,24,0,0,0,0,0,1,0.531799346,2.8809,2,1,1,FALSE,TRUE
s103,92,25,0,0,0,1,1,1,0.003569158,9.2073,3,3,0,FALSE,FALSE
s103,93,35,1,0,1,1,1,1,0.734537535,4.6297,3,1,2,FALSE,TRUE
s103,94,38,1,0,1,0,1,0,0.166870622,3.0919,3,3,0,FALSE,FALSE
s103,95,12,1,0,0,0,0,0,0.000791914,16.8155,1,1,0,TRUE,FALSE
s103,96,48,0,0,1,0,1,0,0.172980497,10.1644,3,2,1,FALSE,TRUE
s103,97,73,1,1,0,1,0,1,0.524578467,4.591,3,2,1,FALSE,TRUE
s103,98,81,0,1,0,1,0,0,0.00134734,10.2125,2,2,0,FALSE,FALSE
s103,99,15,1,0,0,1,1,1,0.511803252,2.589,3,2,1,FALSE,TRUE
s103,100,47,0,0,1,1,1,0,0.001902804,5.587,3,3,0,FALSE,FALSE
s103,101,45,0,0,1,1,1,1,0.190199348,3.1899,3,2,1,FALSE,TRUE
s103,102,58,1,1,1,0,1,0,0.214083614,5.1021,3,2,1,FALSE,TRUE
s103,103,17,1,0,0,1,1,0,0.487918986,2.6191,2,1,1,FALSE,TRUE
s103,104,31,1,0,1,1,0,0,0.491807157,1.97,2,1,1,FALSE,TRUE
s103,105,41,0,0,1,1,0,0,0.000791914,4.6335,2,2,0,FALSE,FALSE
s103,106,78,1,1,0,0,1,0,0.518468591,2.8742,2,1,1,TRUE,TRUE
s103,107,68,0,1,1,0,1,0,0.790082259,2.7574,3,1,2,FALSE,TRUE
s103,108,71,1,1,0,1,0,0,0.776195964,3.8698,2,1,1,FALSE,TRUE
s103,109,76,1,1,0,0,1,1,0.479031866,3.4605,3,2,1,FALSE,TRUE
s103,110,34,1,0,1,0,0,1,0.222415269,3.6362,2,1,1,TRUE,TRUE
s103,111,64,0,1,1,0,0,1,0.501805205,5.6146,3,1,2,FALSE,TRUE
s103,112,66,0,1,1,0,1,1,0.997819396,10.8697,3,0,3,FALSE,FALSE
s103,113,83,0,1,0,1,0,1,0.003569158,5.4804,3,3,0,FALSE,FALSE
s103,114,52,1,1,1,0,0,0,0.003569158,11.9863,3,3,0,FALSE,FALSE
s103,115,46,0,0,1,0,1,1,0.506804228,3.2102,3,1,2,FALSE,TRUE
s103,116,18,1,0,0,0,1,0,0.000791914,12.254,2,2,0,FALSE,FALSE
s103,117,88,0,1,0,0,1,0,0.997263932,4.4245,2,0,2,FALSE,FALSE
s103,118,87,0,1,0,1,1,0,0.776195964,2.6243,2,1,1,TRUE,TRUE
s103,119,42,0,0,1,0,0,0,0.780084212,2.8917,2,1,1,FALSE,TRUE
s103,120,67,0,1,1,1,1,0,0.521801299,3.1427,3,2,1,FALSE,TRUE
s103,121,28,0,0,0,0,1,0,0.737314703,2.5021,2,1,1,FALSE,TRUE
s103,122,33,1,0,1,1,0,1,0.996708468,2.2747,2,0,2,FALSE,FALSE
s103,123,51,1,1,1,1,0,0,0.490140765,3.0554,3,2,1,FALSE,TRUE
s103,124,61,0,1,1,1,0,0,0.002458268,4.3561,3,3,0,FALSE,FALSE
s103,125,72,1,1,0,0,0,0,0.002458268,1.7762,2,2,0,FALSE,FALSE
s103,126,11,1,0,0,1,0,0,0.996153004,2.6293,1,0,1,FALSE,FALSE
s103,127,82,0,1,0,0,0,0,0.768975237,3.5162,2,1,1,FALSE,TRUE
s103,128,13,1,0,0,1,0,1,0.70176615,2.5106,2,1,1,FALSE,TRUE
s104,1,28,0,0,0,0,1,0,0.788000031,2.5523,2,1,1,FALSE,TRUE
s104,2,61,0,1,1,1,0,0,0.01,3.0655,3,3,0,FALSE,FALSE
s104,3,25,0,0,0,1,1,1,0.015,2.2837,3,3,0,FALSE,FALSE
s104,4,18,1,0,0,0,1,0,0.015,2.2147,2,2,0,FALSE,FALSE
s104,5,66,0,1,1,0,1,1,0.996999969,3.1981,3,0,3,FALSE,FALSE
s104,6,52,1,1,1,0,0,0,0.144000015,3.3839,3,3,0,FALSE,FALSE
s104,7,88,0,1,0,0,1,0,0.995,3.7649,2,0,2,FALSE,FALSE
s104,8,15,1,0,0,1,1,1,0.76,4.3844,3,2,1,FALSE,TRUE
s104,9,22,0,0,0,0,0,0,0.996999969,2.2498,1,0,1,FALSE,FALSE
s104,10,24,0,0,0,0,0,1,0.929000092,2.1565,2,1,1,FALSE,TRUE
s104,11,23,0,0,0,1,0,1,0.014000015,2.5026,2,2,0,FALSE,FALSE
s104,12,17,1,0,0,1,1,0,0.883000031,2.477,2,1,1,FALSE,TRUE
s104,13,86,0,1,0,0,1,1,0.846000061,2.2268,3,1,2,FALSE,TRUE
s104,14,34,1,0,1,0,0,1,0.505999985,2.9343,2,1,1,TRUE,TRUE
s104,15,73,1,1,0,1,0,1,0.765999985,2.9719,3,2,1,FALSE,TRUE
s104,16,55,1,1,1,1,1,1,0.994000092,2.168,3,0,3,FALSE,FALSE
s104,17,48,0,0,1,0,1,0,0.919000092,1.9521,3,2,1,FALSE,TRUE
s104,18,85,0,1,0,1,1,1,0.535,4.3876,3,2,1,FALSE,TRUE
s104,19,81,0,1,0,1,0,0,0.037999992,4.2881,2,2,0,FALSE,FALSE
s104,20,42,0,0,1,0,0,0,0.949000092,1.9231,2,1,1,FALSE,TRUE
s104,21,47,0,0,1,1,1,0,0.589000015,2.6711,3,3,0,FALSE,FALSE
s104,22,64,0,1,1,0,0,1,0.884000092,2.0362,3,1,2,FALSE,TRUE
s104,23,21,0,0,0,1,0,0,0.006000023,2.4061,1,1,0,TRUE,FALSE
s104,24,83,0,1,0,1,0,1,0.002999992,3.2638,3,3,0,FALSE,FALSE
s104,25,54,1,1,1,0,0,1,0.285999985,3.3878,3,2,1,FALSE,TRUE
s104,26,71,1,1,0,1,0,0,0.859000092,1.8836,2,1,1,FALSE,TRUE
s104,27,53,1,1,1,1,0,1,0.795999985,1.635,3,1,2,FALSE,TRUE
s104,28,77,1,1,0,1,1,0,0.995,2.3346,2,0,2,FALSE,FALSE
s104,29,11,1,0,0,1,0,0,0.994000092,2.5934,1,0,1,FALSE,FALSE
s104,30,43,0,0,1,1,0,1,0.71,6.6968,2,1,1,TRUE,TRUE
s104,31,44,0,0,1,0,0,1,0.998000031,3.1064,2,0,2,FALSE,FALSE
s104,32,76,1,1,0,0,1,1,0.479000015,4.0908,3,2,1,FALSE,TRUE
s104,33,33,1,0,1,1,0,1,0.996999969,2.1221,2,0,2,FALSE,FALSE
s104,34,51,1,1,1,1,0,0,0.658000031,2.3285,3,2,1,FALSE,TRUE
s104,35,75,1,1,0,1,1,1,0.715,1.9693,3,1,2,FALSE,TRUE
s104,36,78,1,1,0,0,1,0,0.509000015,2.7595,2,1,1,TRUE,TRUE
s104,37,13,1,0,0,1,0,1,0.790999985,2.7831,2,1,1,FALSE,TRUE
s104,38,37,1,0,1,1,1,0,0.650999985,2.9771,3,2,1,FALSE,TRUE
s104,39,35,1,0,1,1,1,1,0.647000046,5.0059,3,1,2,FALSE,TRUE
s104,40,63,0,1,1,1,0,1,0.002999992,2.9746,3,2,1,FALSE,TRUE
s104,41,38,1,0,1,0,1,0,0.007999992,2.4322,3,3,0,FALSE,FALSE
s104,42,84,0,1,0,0,0,1,0.682000046,2.3519,3,2,1,FALSE,TRUE
s104,43,74,1,1,0,0,0,1,0.017999992,2.5945,3,3,0,FALSE,FALSE
s104,44,31,1,0,1,1,0,0,0.899000092,2.3139,2,1,1,FALSE,TRUE
s104,45,82,0,1,0,0,0,0,0.899000092,1.8058,2,1,1,FALSE,TRUE
s104,46,45,0,0,1,1,1,1,0.009000015,3.0894,3,2,1,FALSE,TRUE
s104,47,58,1,1,1,0,1,0,0.139000015,2.653,3,2,1,FALSE,TRUE
s104,48,87,0,1,0,1,1,0,0.794000015,1.8054,2,1,1,TRUE,TRUE
s104,49,65,0,1,1,1,1,1,0.695,3.8839,3,1,2,TRUE,TRUE
s104,50,67,0,1,1,1,1,0,0.059000015,2.1995,3,2,1,FALSE,TRUE
s104,51,27,0,0,0,1,1,0,0.001000023,2.503,2,2,0,FALSE,FALSE
s104,52,56,1,1,1,0,1,1,0.693000031,2.088,3,1,2,TRUE,TRUE
s104,53,68,0,1,1,0,1,0,0.679000015,3.176,3,1,2,FALSE,TRUE
s104,54,46,0,0,1,0,1,1,0.818000031,1.8856,3,1,2,FALSE,TRUE
s104,55,57,1,1,1,1,1,0,0.838000031,2.4488,3,1,2,FALSE,TRUE
s104,56,62,0,1,1,0,0,0,0.864000092,2.1806,3,2,1,FALSE,TRUE
s104,57,14,1,0,0,0,0,1,0.005,3.1034,2,2,0,FALSE,FALSE
s104,58,12,1,0,0,0,0,0,0.002000008,2.3982,1,1,0,TRUE,FALSE
s104,59,41,0,0,1,1,0,0,0.011000023,3.2635,2,2,0,FALSE,FALSE
s104,60,26,0,0,0,0,1,1,0.828000031,2.7368,3,2,1,FALSE,TRUE
s104,61,72,1,1,0,0,0,0,0.002000008,2.0778,2,2,0,FALSE,FALSE
s104,62,36,1,0,1,0,1,1,0.014000015,1.9212,3,2,1,FALSE,TRUE
s104,63,16,1,0,0,0,1,1,0.006000023,1.9098,3,3,0,FALSE,FALSE
s104,64,32,1,0,1,0,0,0,0.001000023,2.1341,2,2,0,FALSE,FALSE
s104,65,45,0,0,1,1,1,1,0.149000015,2.7349,3,2,1,FALSE,TRUE
s104,66,26,0,0,0,0,1,1,0.603000031,1.9971,3,2,1,FALSE,TRUE
s104,67,36,1,0,1,0,1,1,0.017999992,2.4176,3,2,1,FALSE,TRUE
s104,68,53,1,1,1,1,0,1,0.655999985,1.888,3,1,2,FALSE,TRUE
s104,69,27,0,0,0,1,1,0,0.002000008,2.5017,2,2,0,FALSE,FALSE
s104,70,83,0,1,0,1,0,1,0.002000008,2.1468,3,3,0,FALSE,FALSE
s104,71,75,1,1,0,1,1,1,0.798000031,2.6884,3,1,2,FALSE,TRUE
s104,72,13,1,0,0,1,0,1,0.891000061,4.0285,2,1,1,FALSE,TRUE
s104,73,77,1,1,0,1,1,0,0.998000031,2.6956,2,0,2,FALSE,FALSE
s104,74,35,1,0,1,1,1,1,0.812000046,1.899,3,1,2,FALSE,TRUE
s104,75,73,1,1,0,1,0,1,0.598000031,1.911,3,2,1,FALSE,TRUE
s104,76,16,1,0,0,0,1,1,0.001000023,2.1549,3,3,0,FALSE,FALSE
s104,77,87,0,1,0,1,1,0,0.562000046,2.6892,2,1,1,TRUE,TRUE
s104,78,46,0,0,1,0,1,1,0.78,2.5465,3,1,2,FALSE,TRUE
s104,79,57,1,1,1,1,1,0,0.841000061,1.903,3,1,2,FALSE,TRUE
s104,80,17,1,0,0,1,1,0,0.777000046,2.3721,2,1,1,FALSE,TRUE
s104,81,55,1,1,1,1,1,1,0.998000031,2.7688,3,0,3,FALSE,FALSE
s104,82,12,1,0,0,0,0,0,0.01,4.9499,1,1,0,TRUE,FALSE
s104,83,31,1,0,1,1,0,0,0.86,2.859,2,1,1,FALSE,TRUE
s104,84,43,0,0,1,1,0,1,0.127999992,2.1604,2,1,1,TRUE,TRUE
s104,85,44,0,0,1,0,0,1,0.996999969,2.209,2,0,2,FALSE,FALSE
s104,86,68,0,1,1,0,1,0,0.904000092,1.8331,3,1,2,FALSE,TRUE
s104,87,18,1,0,0,0,1,0,0.019000015,2.4143,2,2,0,FALSE,FALSE
s104,88,21,0,0,0,1,0,0,0.007999992,3.0284,1,1,0,TRUE,FALSE
s104,89,42,0,0,1,0,0,0,0.891999969,1.8756,2,1,1,FALSE,TRUE
s104,90,84,0,1,0,0,0,1,0.703000031,1.5673,3,2,1,FALSE,TRUE
s104,91,74,1,1,0,0,0,1,0.009000015,2.8641,3,3,0,FALSE,FALSE
s104,92,24,0,0,0,0,0,1,0.923000031,2.226,2,1,1,FALSE,TRUE
s104,93,66,0,1,1,0,1,1,0.988000031,1.9211,3,0,3,FALSE,FALSE
s104,94,61,0,1,1,1,0,0,0.006000023,2.4705,3,3,0,FALSE,FALSE
s104,95,72,1,1,0,0,0,0,0.002999992,2.7239,2,2,0,FALSE,FALSE
s104,96,47,0,0,1,1,1,0,0.005,2.1175,3,3,0,FALSE,FALSE
s104,97,23,0,0,0,1,0,1,0.001000023,2.7794,2,2,0,FALSE,FALSE
s104,98,52,1,1,1,0,0,0,0.002999992,2.5493,3,3,0,FALSE,FALSE
s104,99,82,0,1,0,0,0,0,0.821999969,2.17,2,1,1,FALSE,TRUE
s104,100,88,0,1,0,0,1,0,0.998000031,3.2066,2,0,2,FALSE,FALSE
s104,101,22,0,0,0,0,0,0,0.999000092,2.6054,1,0,1,FALSE,FALSE
s104,102,38,1,0,1,0,1,0,0.002999992,3.1644,3,3,0,FALSE,FALSE
s104,103,64,0,1,1,0,0,1,0.856000061,1.7783,3,1,2,FALSE,TRUE
s104,104,33,1,0,1,1,0,1,0.995,2.0297,2,0,2,FALSE,FALSE
s104,105,11,1,0,0,1,0,0,0.996999969,1.9077,1,0,1,FALSE,FALSE
s104,106,78,1,1,0,0,1,0,0.199000015,2.9752,2,1,1,TRUE,TRUE
s104,107,41,0,0,1,1,0,0,0.007000008,5.5084,2,2,0,FALSE,FALSE
s104,108,62,0,1,1,0,0,0,0.769000015,1.8046,3,2,1,FALSE,TRUE
s104,109,58,1,1,1,0,1,0,0.077999992,1.9198,3,2,1,FALSE,TRUE
s104,110,81,0,1,0,1,0,0,0.005,2.0754,2,2,0,FALSE,FALSE
s104,111,86,0,1,0,0,1,1,0.881000061,2.1924,3,1,2,FALSE,TRUE
s104,112,65,0,1,1,1,1,1,0.005,2.1021,3,1,2,TRUE,TRUE
s104,113,34,1,0,1,0,0,1,0.775,1.9558,2,1,1,TRUE,TRUE
s104,114,63,0,1,1,1,0,1,0.213000031,2.4852,3,2,1,FALSE,TRUE
s104,115,25,0,0,0,1,1,1,0.01,2.0595,3,3,0,FALSE,FALSE
s104,116,85,0,1,0,1,1,1,0.03,2.5446,3,2,1,FALSE,TRUE
s104,117,51,1,1,1,1,0,0,0.645,2.5589,3,2,1,FALSE,TRUE
s104,118,48,0,0,1,0,1,0,0.58,2.3607,3,2,1,FALSE,TRUE
s104,119,37,1,0,1,1,1,0,0.508000031,2.6736,3,2,1,FALSE,TRUE
s104,120,32,1,0,1,0,0,0,0.002999992,2.2214,2,2,0,FALSE,FALSE
s104,121,67,0,1,1,1,1,0,0.006000023,2.6571,3,2,1,FALSE,TRUE
s104,122,76,1,1,0,0,1,1,0.047999992,2.7672,3,2,1,FALSE,TRUE
s104,123,56,1,1,1,0,1,1,0.747000046,2.0627,3,1,2,TRUE,TRUE
s104,124,54,1,1,1,0,0,1,0.492000046,2.6179,3,2,1,FALSE,TRUE
s104,125,28,0,0,0,0,1,0,0.899000092,2.8841,2,1,1,FALSE,TRUE
s104,126,14,1,0,0,0,0,1,0.002999992,2.3187,2,2,0,FALSE,FALSE
s104,127,71,1,1,0,1,0,0,0.898000031,1.9574,2,1,1,FALSE,TRUE
s104,128,15,1,0,0,1,1,1,0.841000061,1.6302,3,2,1,FALSE,TRUE
s105,1,51,1,1,1,1,0,0,0.27625,12.071,3,2,1,FALSE,TRUE
s105,2,77,1,1,0,1,1,0,0.99125,2.906,2,0,2,FALSE,FALSE
s105,3,34,1,0,1,0,0,1,0.5075,5.106,2,1,1,TRUE,TRUE
s105,4,46,0,0,1,0,1,1,0.75875,2.998,3,1,2,FALSE,TRUE
s105,5,23,0,0,0,1,0,1,0.01875,2.553,2,2,0,FALSE,FALSE
s105,6,15,1,0,0,1,1,1,0.49,2.892,3,2,1,FALSE,TRUE
s105,7,88,0,1,0,0,1,0,0.9925,2.552,2,0,2,FALSE,FALSE
s105,8,27,0,0,0,1,1,0,0.0075,5.807,2,2,0,FALSE,FALSE
s105,9,62,0,1,1,0,0,0,0.31875,2.755,3,2,1,FALSE,TRUE
s105,10,44,0,0,1,0,0,1,0.99125,1.943,2,0,2,FALSE,FALSE
s105,11,17,1,0,0,1,1,0,0.4825,1.791,2,1,1,FALSE,TRUE
s105,12,58,1,1,1,0,1,0,0.0025,2.493,3,2,1,FALSE,TRUE
s105,13,76,1,1,0,0,1,1,0.015,1.816,3,2,1,FALSE,TRUE
s105,14,37,1,0,1,1,1,0,0.1975,3.901,3,2,1,FALSE,TRUE
s105,15,36,1,0,1,0,1,1,0.0075,1.913,3,2,1,FALSE,TRUE
s105,16,35,1,0,1,1,1,1,0.5425,2.679,3,1,2,FALSE,TRUE
s105,17,26,0,0,0,0,1,1,0.305,2.663,3,2,1,FALSE,TRUE
s105,18,75,1,1,0,1,1,1,0.71125,2.426,3,1,2,FALSE,TRUE
s105,19,57,1,1,1,1,1,0,0.75,2.474,3,1,2,FALSE,TRUE
s105,20,14,1,0,0,0,0,1,0.01375,5.604,2,2,0,FALSE,FALSE
s105,21,12,1,0,0,0,0,0,0.00875,2.808,1,1,0,TRUE,FALSE
s105,22,83,0,1,0,1,0,1,0.00125,9.014,3,3,0,FALSE,FALSE
s105,23,71,1,1,0,1,0,0,0.205,2.799,2,1,1,FALSE,TRUE
s105,24,52,1,1,1,0,0,0,0.01,1.791,3,3,0,FALSE,FALSE
s105,25,33,1,0,1,1,0,1,0.995,2.896,2,0,2,FALSE,FALSE
s105,26,55,1,1,1,1,1,1,0.995,4.545,3,0,3,FALSE,FALSE
s105,27,73,1,1,0,1,0,1,0.56,13.503,3,2,1,FALSE,TRUE
s105,28,61,0,1,1,1,0,0,0.0075,3.772,3,3,0,FALSE,FALSE
s105,29,21,0,0,0,1,0,0,0.00375,3.735,1,1,0,TRUE,FALSE
s105,30,16,1,0,0,0,1,1,0.005,1.915,3,3,0,FALSE,FALSE
s105,31,11,1,0,0,1,0,0,0.99625,2.103,1,0,1,FALSE,FALSE
s105,32,68,0,1,1,0,1,0,0.84375,2.936,3,1,2,FALSE,TRUE
s105,33,32,1,0,1,0,0,0,0.01,3.435,2,2,0,FALSE,FALSE
s105,34,66,0,1,1,0,1,1,0.9975,3.264,3,0,3,FALSE,FALSE
s105,35,78,1,1,0,0,1,0,0.00625,3.738,2,1,1,TRUE,TRUE
s105,36,28,0,0,0,0,1,0,0.21,4.006,2,1,1,FALSE,TRUE
s105,37,18,1,0,0,0,1,0,0.00875,2.486,2,2,0,FALSE,FALSE
s105,38,86,0,1,0,0,1,1,0.56125,4.57,3,1,2,FALSE,TRUE
s105,39,81,0,1,0,1,0,0,0.01375,8.315,2,2,0,FALSE,FALSE
s105,40,25,0,0,0,1,1,1,0.0175,10.032,3,3,0,FALSE,FALSE
s105,41,87,0,1,0,1,1,0,0.00875,7.35,2,1,1,TRUE,TRUE
s105,42,64,0,1,1,0,0,1,0.62375,17.181,3,1,2,FALSE,TRUE
s105,43,22,0,0,0,0,0,0,0.9975,2.269,1,0,1,FALSE,FALSE
s105,44,41,0,0,1,1,0,0,0.00875,2.24,2,2,0,FALSE,FALSE
s105,45,84,0,1,0,0,0,1,0.32375,3.597,3,2,1,FALSE,TRUE
s105,46,82,0,1,0,0,0,0,0.2375,2.247,2,1,1,FALSE,TRUE
s105,47,13,1,0,0,1,0,1,0.51,2.312,2,1,1,FALSE,TRUE
s105,48,74,1,1,0,0,0,1,0.01625,8.005,3,3,0,FALSE,FALSE
s105,49,63,0,1,1,1,0,1,0.00625,3.539,3,2,1,FALSE,TRUE
s105,50,53,1,1,1,1,0,1,0.865,1.944,3,1,2,FALSE,TRUE
s105,51,38,1,0,1,0,1,0,0.005,3.206,3,3,0,FALSE,FALSE
s105,52,65,0,1,1,1,1,1,0.0025,4.055,3,1,2,TRUE,TRUE
s105,53,45,0,0,1,1,1,1,0.0025,3.436,3,2,1,FALSE,TRUE
s105,54,31,1,0,1,1,0,0,0.635,1.904,2,1,1,FALSE,TRUE
s105,55,42,0,0,1,0,0,0,0.53,1.771,2,1,1,FALSE,TRUE
s105,56,24,0,0,0,0,0,1,0.4825,3.81,2,1,1,FALSE,TRUE
s105,57,47,0,0,1,1,1,0,0.01,1.856,3,3,0,FALSE,FALSE
s105,58,43,0,0,1,1,0,1,0.0025,14.874,2,1,1,TRUE,TRUE
s105,59,72,1,1,0,0,0,0,0.01,2.541,2,2,0,FALSE,FALSE
s105,60,85,0,1,0,1,1,1,0.00375,3.597,3,2,1,FALSE,TRUE
s105,61,56,1,1,1,0,1,1,0.00625,1.202,3,1,2,TRUE,TRUE
s105,62,67,0,1,1,1,1,0,0.0075,1.602,3,2,1,FALSE,TRUE
s105,63,48,0,0,1,0,1,0,0.3275,1.695,3,2,1,FALSE,TRUE
s105,64,54,1,1,1,0,0,1,0.005,1.638,3,2,1,FALSE,TRUE
s105,65,71,1,1,0,1,0,0,0.26125,6.558,2,1,1,FALSE,TRUE
s105,66,51,1,1,1,1,0,0,0.145,1.618,3,2,1,FALSE,TRUE
s105,67,53,1,1,1,1,0,1,0.3625,1.682,3,1,2,FALSE,TRUE
s105,68,76,1,1,0,0,1,1,0.00125,1.814,3,2,1,FALSE,TRUE
s105,69,22,0,0,0,0,0,0,0.9975,2.643,1,0,1,FALSE,FALSE
s105,70,31,1,0,1,1,0,0,0.665,2.189,2,1,1,FALSE,TRUE
s105,71,87,0,1,0,1,1,0,0.0025,1.866,2,1,1,TRUE,TRUE
s105,72,88,0,1,0,0,1,0,0.9925,1.982,2,0,2,FALSE,FALSE
s105,73,78,1,1,0,0,1,0,0.31625,5.126,2,1,1,TRUE,TRUE
s105,74,43,0,0,1,1,0,1,0.00375,1.915,2,1,1,TRUE,TRUE
s105,75,35,1,0,1,1,1,1,0.31625,2.322,3,1,2,FALSE,TRUE
s105,76,11,1,0,0,1,0,0,0.98875,1.675,1,0,1,FALSE,FALSE
s105,77,54,1,1,1,0,0,1,0.00125,1.888,3,2,1,FALSE,TRUE
s105,78,21,0,0,0,1,0,0,0.0075,3.257,1,1,0,TRUE,FALSE
s105,79,73,1,1,0,1,0,1,0.2,1.939,3,2,1,FALSE,TRUE
s105,80,17,1,0,0,1,1,0,0.42875,2.113,2,1,1,FALSE,TRUE
s105,81,67,0,1,1,1,1,0,0.0075,2.351,3,2,1,FALSE,TRUE
s105,82,38,1,0,1,0,1,0,0.00625,1.972,3,3,0,FALSE,FALSE
s105,83,58,1,1,1,0,1,0,0.00875,4.807,3,2,1,FALSE,TRUE
s105,84,82,0,1,0,0,0,0,0.55625,2.769,2,1,1,FALSE,TRUE
s105,85,57,1,1,1,1,1,0,0.52,2.376,3,1,2,FALSE,TRUE
s105,86,65,0,1,1,1,1,1,0.29875,5.996,3,1,2,TRUE,TRUE
s105,87,23,0,0,0,1,0,1,0.00125,6.677,2,2,0,FALSE,FALSE
s105,88,16,1,0,0,0,1,1,0.0175,6.361,3,3,0,FALSE,FALSE
s105,89,28,0,0,0,0,1,0,0.62,7.355,2,1,1,FALSE,TRUE
s105,90,63,0,1,1,1,0,1,0.08,3.45,3,2,1,FALSE,TRUE
s105,91,66,0,1,1,0,1,1,0.9875,1.661,3,0,3,FALSE,FALSE
s105,92,15,1,0,0,1,1,1,0.6025,1.955,3,2,1,FALSE,TRUE
s105,93,41,0,0,1,1,0,0,0.00375,3.575,2,2,0,FALSE,FALSE
s105,94,72,1,1,0,0,0,0,0.00375,2.177,2,2,0,FALSE,FALSE
s105,95,14,1,0,0,0,0,1,0.0075,1.537,2,2,0,FALSE,FALSE
s105,96,62,0,1,1,0,0,0,0.2375,2.192,3,2,1,FALSE,TRUE
s105,97,84,0,1,0,0,0,1,0.39875,2.613,3,2,1,FALSE,TRUE
s105,98,47,0,0,1,1,1,0,0.015,9.092,3,3,0,FALSE,FALSE
s105,99,75,1,1,0,1,1,1,0.51625,10.376,3,1,2,FALSE,TRUE
s105,100,83,0,1,0,1,0,1,0.01375,3.418,3,3,0,FALSE,FALSE
s105,101,55,1,1,1,1,1,1,0.985,2.48,3,0,3,FALSE,FALSE
s105,102,81,0,1,0,1,0,0,0.00625,2.198,2,2,0,FALSE,FALSE
s105,103,34,1,0,1,0,0,1,0.0125,1.946,2,1,1,TRUE,TRUE
s105,104,86,0,1,0,0,1,1,0.79875,5.679,3,1,2,FALSE,TRUE
s105,105,26,0,0,0,0,1,1,0.00125,2.12,3,2,1,FALSE,TRUE
s105,106,37,1,0,1,1,1,0,0.155,4.278,3,2,1,FALSE,TRUE
s105,107,33,1,0,1,1,0,1,0.99625,2.122,2,0,2,FALSE,FALSE
s105,108,13,1,0,0,1,0,1,0.785,2.132,2,1,1,FALSE,TRUE
s105,109,42,0,0,1,0,0,0,0.66375,2.823,2,1,1,FALSE,TRUE
s105,110,85,0,1,0,1,1,1,0.0075,2.531,3,2,1,FALSE,TRUE
s105,111,32,1,0,1,0,0,0,0.00375,1.76,2,2,0,FALSE,FALSE
s105,112,24,0,0,0,0,0,1,0.24375,2.575,2,1,1,FALSE,TRUE
s105,113,56,1,1,1,0,1,1,0.1925,2.612,3,1,2,TRUE,TRUE
s105,114,64,0,1,1,0,0,1,0.54625,2.346,3,1,2,FALSE,TRUE
s105,115,46,0,0,1,0,1,1,0.82375,1.826,3,1,2,FALSE,TRUE
s105,116,68,0,1,1,0,1,0,0.815,2.732,3,1,2,FALSE,TRUE
s105,117,52,1,1,1,0,0,0,0.00375,2.19,3,3,0,FALSE,FALSE
s105,118,44,0,0,1,0,0,1,0.9875,2.151,2,0,2,FALSE,FALSE
s105,119,12,1,0,0,0,0,0,0.00125,2.895,1,1,0,TRUE,FALSE
s105,120,48,0,0,1,0,1,0,0.39875,3.655,3,2,1,FALSE,TRUE
s105,121,36,1,0,1,0,1,1,0.0025,2.293,3,2,1,FALSE,TRUE
s105,122,74,1,1,0,0,0,1,0.01,2.043,3,3,0,FALSE,FALSE
s105,123,27,0,0,0,1,1,0,0.00375,2.299,2,2,0,FALSE,FALSE
s105,124,25,0,0,0,1,1,1,0.02125,4.242,3,3,0,FALSE,FALSE
s105,125,45,0,0,1,1,1,1,0.0125,1.241,3,2,1,FALSE,TRUE
s105,126,61,0,1,1,1,0,0,0.00625,6.308,3,3,0,FALSE,FALSE
s105,127,77,1,1,0,1,1,0,0.9975,2.87,2,0,2,FALSE,FALSE
s105,128,18,1,0,0,0,1,0,0.00375,3.069,2,2,0,FALSE,FALSE
s106,1,33,1,0,1,1,0,1,0.99625,2.4204,2,0,2,FALSE,FALSE
s106,2,55,1,1,1,1,1,1,0.9975,2.8576,3,0,3,FALSE,FALSE
s106,3,85,0,1,0,1,1,1,0.5625,3.7857,3,2,1,FALSE,TRUE
s106,4,78,1,1,0,0,1,0,0.93125,2.5343,2,1,1,TRUE,TRUE
s106,5,17,1,0,0,1,1,0,0.7825,3.0916,2,1,1,FALSE,TRUE
s106,6,22,0,0,0,0,0,0,0.99625,2.1644,1,0,1,FALSE,FALSE
s106,7,18,1,0,0,0,1,0,0.0075,5.637,2,2,0,FALSE,FALSE
s106,8,34,1,0,1,0,0,1,0.715,2.1405,2,1,1,TRUE,TRUE
s106,9,71,1,1,0,1,0,0,0.9,2.407,2,1,1,FALSE,TRUE
s106,10,88,0,1,0,0,1,0,0.99625,2.1818,2,0,2,FALSE,FALSE
s106,11,64,0,1,1,0,0,1,0.845,2.6949,3,1,2,FALSE,TRUE
s106,12,25,0,0,0,1,1,1,0.00125,2.4158,3,3,0,FALSE,FALSE
s106,13,48,0,0,1,0,1,0,0.5375,2.6126,3,2,1,FALSE,TRUE
s106,14,84,0,1,0,0,0,1,0.42875,4.2293,3,2,1,FALSE,TRUE
s106,15,82,0,1,0,0,0,0,0.6325,2.7046,2,1,1,FALSE,TRUE
s106,16,47,0,0,1,1,1,0,0.005,5.6697,3,3,0,FALSE,FALSE
s106,17,62,0,1,1,0,0,0,0.42375,4.7852,3,2,1,FALSE,TRUE
s106,18,21,0,0,0,1,0,0,0.1175,5.8549,1,1,0,TRUE,FALSE
s106,19,87,0,1,0,1,1,0,0.50875,4.3231,2,1,1,TRUE,TRUE
s106,20,83,0,1,0,1,0,1,0.005,2.4937,3,3,0,FALSE,FALSE
s106,21,75,1,1,0,1,1,1,0.74875,3.1681,3,1,2,FALSE,TRUE
s106,22,53,1,1,1,1,0,1,0.76875,2.7947,3,1,2,FALSE,TRUE
s106,23,51,1,1,1,1,0,0,0.45625,3.2349,3,2,1,FALSE,TRUE
s106,24,43,0,0,1,1,0,1,0.6825,2.5903,2,1,1,TRUE,TRUE
s106,25,67,0,1,1,1,1,0,0.215,3.9299,3,2,1,FALSE,TRUE
s106,26,14,1,0,0,0,0,1,0.01375,2.1341,2,2,0,FALSE,FALSE
s106,27,52,1,1,1,0,0,0,0.02,2.1628,3,3,0,FALSE,FALSE
s106,28,42,0,0,1,0,0,0,0.92375,2.8776,2,1,1,FALSE,TRUE
s106,29,68,0,1,1,0,1,0,0.99,2.7129,3,1,2,FALSE,TRUE
s106,30,12,1,0,0,0,0,0,0.00125,3.1952,1,1,0,TRUE,FALSE
s106,31,77,1,1,0,1,1,0,0.99375,3.7274,2,0,2,FALSE,FALSE
s106,32,41,0,0,1,1,0,0,0.0025,3.1355,2,2,0,FALSE,FALSE
s106,33,32,1,0,1,0,0,0,0.005,5.7638,2,2,0,FALSE,FALSE
s106,34,24,0,0,0,0,0,1,0.78125,3.118,2,1,1,FALSE,TRUE
s106,35,65,0,1,1,1,1,1,0.70125,2.6508,3,1,2,TRUE,TRUE
s106,36,54,1,1,1,0,0,1,0.21375,3.2458,3,2,1,FALSE,TRUE
s106,37,27,0,0,0,1,1,0,0.00375,3.5206,2,2,0,FALSE,FALSE
s106,38,57,1,1,1,1,1,0,0.7275,2.2806,3,1,2,FALSE,TRUE
s106,39,74,1,1,0,0,0,1,0.00875,2.3834,3,3,0,FALSE,FALSE
s106,40,76,1,1,0,0,1,1,0.1275,3.0954,3,2,1,FALSE,TRUE
s106,41,44,0,0,1,0,0,1,0.99125,2.4535,2,0,2,FALSE,FALSE
s106,42,11,1,0,0,1,0,0,0.99,2.3909,1,0,1,FALSE,FALSE
s106,43,35,1,0,1,1,1,1,0.855,3.2065,3,1,2,FALSE,TRUE
s106,44,13,1,0,0,1,0,1,0.4825,2.6576,2,1,1,FALSE,TRUE
s106,45,28,0,0,0,0,1,0,0.52125,2.2638,2,1,1,FALSE,TRUE
s106,46,31,1,0,1,1,0,0,0.5675,2.0214,2,1,1,FALSE,TRUE
s106,47,56,1,1,1,0,1,1,0.735,2.9402,3,1,2,TRUE,TRUE
s106,48,72,1,1,0,0,0,0,0.005,2.851,2,2,0,FALSE,FALSE
s106,49,66,0,1,1,0,1,1,0.99625,2.2094,3,0,3,FALSE,FALSE
s106,50,63,0,1,1,1,0,1,0.52875,2.5839,3,2,1,FALSE,TRUE
s106,51,61,0,1,1,1,0,0,0.00125,2.9348,3,3,0,FALSE,FALSE
s106,52,81,0,1,0,1,0,0,0.0075,2.4184,2,2,0,FALSE,FALSE
s106,53,58,1,1,1,0,1,0,0.17375,3.6072,3,2,1,FALSE,TRUE
s106,54,46,0,0,1,0,1,1,0.69125,4.2761,3,1,2,FALSE,TRUE
s106,55,73,1,1,0,1,0,1,0.47375,2.6013,3,2,1,FALSE,TRUE
s106,56,45,0,0,1,1,1,1,0.31875,3.8446,3,2,1,FALSE,TRUE
s106,57,36,1,0,1,0,1,1,0.24,3.3263,3,2,1,FALSE,TRUE
s106,58,16,1,0,0,0,1,1,0.06125,2.6218,3,3,0,FALSE,FALSE
s106,59,86,0,1,0,0,1,1,0.93125,2.6123,3,1,2,FALSE,TRUE
s106,60,23,0,0,0,1,0,1,0.00625,4.1613,2,2,0,FALSE,FALSE
s106,61,38,1,0,1,0,1,0,0.01875,2.7964,3,3,0,FALSE,FALSE
s106,62,26,0,0,0,0,1,1,0.655,3.0852,3,2,1,FALSE,TRUE
s106,63,37,1,0,1,1,1,0,0.57125,8.7575,3,2,1,FALSE,TRUE
s106,64,15,1,0,0,1,1,1,0.50875,3.7456,3,2,1,FALSE,TRUE
s106,65,41,0,0,1,1,0,0,0.00625,2.0978,2,2,0,FALSE,FALSE
s106,66,37,1,0,1,1,1,0,0.49,4.5433,3,2,1,FALSE,TRUE
s106,67,31,1,0,1,1,0,0,0.51,1.8842,2,1,1,FALSE,TRUE
s106,68,63,0,1,1,1,0,1,0.3725,3.2718,3,2,1,FALSE,TRUE
s106,69,66,0,1,1,0,1,1,0.995,2.494,3,0,3,FALSE,FALSE
s106,70,28,0,0,0,0,1,0,0.655,2.5992,2,1,1,FALSE,TRUE
s106,71,82,0,1,0,0,0,0,0.66625,1.8381,2,1,1,FALSE,TRUE
s106,72,13,1,0,0,1,0,1,0.66875,1.834,2,1,1,FALSE,TRUE
s106,73,53,1,1,1,1,0,1,0.77125,2.4314,3,1,2,FALSE,TRUE
s106,74,57,1,1,1,1,1,0,0.77125,2.0747,3,1,2,FALSE,TRUE
s106,75,32,1,0,1,0,0,0,0.04125,3.445,2,2,0,FALSE,FALSE
s106,76,16,1,0,0,0,1,1,0.0175,2.8508,3,3,0,FALSE,FALSE
s106,77,18,1,0,0,0,1,0,0.00375,1.9833,2,2,0,FALSE,FALSE
s106,78,12,1,0,0,0,0,0,0.005,2.8174,1,1,0,TRUE,FALSE
s106,79,72,1,1,0,0,0,0,0.0125,2.8461,2,2,0,FALSE,FALSE
s106,80,45,0,0,1,1,1,1,0.2075,4.9841,3,2,1,FALSE,TRUE
s106,81,64,0,1,1,0,0,1,0.65375,3.2623,3,1,2,FALSE,TRUE
s106,82,15,1,0,0,1,1,1,0.71375,6.5845,3,2,1,FALSE,TRUE
s106,83,24,0,0,0,0,0,1,0.84875,3.748,2,1,1,FALSE,TRUE
s106,84,11,1,0,0,1,0,0,0.99625,2.5776,1,0,1,FALSE,FALSE
s106,85,21,0,0,0,1,0,0,0.0075,3.4842,1,1,0,TRUE,FALSE
s106,86,88,0,1,0,0,1,0,0.99125,1.9771,2,0,2,FALSE,FALSE
s106,87,76,1,1,0,0,1,1,0.5325,2.4425,3,2,1,FALSE,TRUE
s106,88,48,0,0,1,0,1,0,0.6025,3.2458,3,2,1,FALSE,TRUE
s106,89,87,0,1,0,1,1,0,0.55625,2.2862,2,1,1,TRUE,TRUE
s106,90,35,1,0,1,1,1,1,0.65625,2.5261,3,1,2,FALSE,TRUE
s106,91,34,1,0,1,0,0,1,0.38375,4.0278,2,1,1,TRUE,TRUE
s106,92,68,0,1,1,0,1,0,0.83625,3.5208,3,1,2,FALSE,TRUE
s106,93,86,0,1,0,0,1,1,0.84625,1.9785,3,1,2,FALSE,TRUE
s106,94,47,0,0,1,1,1,0,0.0025,4.7642,3,3,0,FALSE,FALSE
s106,95,77,1,1,0,1,1,0,0.99375,2.4182,2,0,2,FALSE,FALSE
s106,96,43,0,0,1,1,0,1,0.3575,2.693,2,1,1,TRUE,TRUE
s106,97,36,1,0,1,0,1,1,0.30375,3.484,3,2,1,FALSE,TRUE
s106,98,51,1,1,1,1,0,0,0.52,2.5142,3,2,1,FALSE,TRUE
s106,99,74,1,1,0,0,0,1,0.00625,3.7681,3,3,0,FALSE,FALSE
s106,100,44,0,0,1,0,0,1,0.99375,2.1673,2,0,2,FALSE,FALSE
s106,101,27,0,0,0,1,1,0,0.005,2.7249,2,2,0,FALSE,FALSE
s106,102,52,1,1,1,0,0,0,0.01,6.7174,3,3,0,FALSE,FALSE
s106,103,67,0,1,1,1,1,0,0.05,5.084,3,2,1,FALSE,TRUE
s106,104,56,1,1,1,0,1,1,0.4775,3.1561,3,1,2,TRUE,TRUE
s106,105,83,0,1,0,1,0,1,0.0075,2.4722,3,3,0,FALSE,FALSE
s106,106,85,0,1,0,1,1,1,0.34875,2.4098,3,2,1,FALSE,TRUE
s106,107,81,0,1,0,1,0,0,0.01875,2.2506,2,2,0,FALSE,FALSE
s106,108,65,0,1,1,1,1,1,0.52125,3.5551,3,1,2,TRUE,TRUE
s106,109,46,0,0,1,0,1,1,0.68,2.4339,3,1,2,FALSE,TRUE
s106,110,54,1,1,1,0,0,1,0.21625,4.0872,3,2,1,FALSE,TRUE
s106,111,71,1,1,0,1,0,0,0.4725,3.0353,2,1,1,FALSE,TRUE
s106,112,73,1,1,0,1,0,1,0.55125,3.367,3,2,1,FALSE,TRUE
s106,113,58,1,1,1,0,1,0,0.10375,4.2359,3,2,1,FALSE,TRUE
s106,114,23,0,0,0,1,0,1,0.0125,2.6785,2,2,0,FALSE,FALSE
s106,115,75,1,1,0,1,1,1,0.52375,2.6839,3,1,2,FALSE,TRUE
s106,116,14,1,0,0,0,0,1,0.015,2.5905,2,2,0,FALSE,FALSE
s106,117,22,0,0,0,0,0,0,0.9925,1.8243,1,0,1,FALSE,FALSE
s106,118,38,1,0,1,0,1,0,0.00125,2.4518,3,3,0,FALSE,FALSE
s106,119,62,0,1,1,0,0,0,0.63625,2.1184,3,2,1,FALSE,TRUE
s106,120,42,0,0,1,0,0,0,0.8325,1.874,2,1,1,FALSE,TRUE
s106,121,33,1,0,1,1,0,1,0.995,2.3778,2,0,2,FALSE,FALSE
s106,122,17,1,0,0,1,1,0,0.665,2.0592,2,1,1,FALSE,TRUE
s106,123,26,0,0,0,0,1,1,0.725,2.6171,3,2,1,FALSE,TRUE
s106,124,55,1,1,1,1,1,1,0.9925,3.1449,3,0,3,FALSE,FALSE
s106,125,25,0,0,0,1,1,1,0.00625,1.9926,3,3,0,FALSE,FALSE
s106,126,61,0,1,1,1,0,0,0.0125,2.6976,3,3,0,FALSE,FALSE
s106,127,84,0,1,0,0,0,1,0.7675,2.1638,3,2,1,FALSE,TRUE
s106,128,78,1,1,0,0,1,0,0.34625,3.098,2,1,1,TRUE,TRUE
s107,1,83,0,1,0,1,0,1,0.00625,3.6974,3,3,0,FALSE,FALSE
s107,2,15,1,0,0,1,1,1,0.30125,6.9517,3,2,1,FALSE,TRUE
s107,3,41,0,0,1,1,0,0,0.01,4.8144,2,2,0,FALSE,FALSE
s107,4,66,0,1,1,0,1,1,0.99875,6.4065,3,0,3,FALSE,FALSE
s107,5,54,1,1,1,0,0,1,0.17875,10.9546,3,2,1,FALSE,TRUE
s107,6,73,1,1,0,1,0,1,0.31375,4.8913,3,2,1,FALSE,TRUE
s107,7,11,1,0,0,1,0,0,0.99625,3.1681,1,0,1,FALSE,FALSE
s107,8,57,1,1,1,1,1,0,0.66875,5.039,3,1,2,FALSE,TRUE
s107,9,82,0,1,0,0,0,0,0.6825,3.5135,2,1,1,FALSE,TRUE
s107,10,43,0,0,1,1,0,1,0.51125,6.3816,2,1,1,TRUE,TRUE
s107,11,87,0,1,0,1,1,0,0.51125,1.9704,2,1,1,TRUE,TRUE
s107,12,55,1,1,1,1,1,1,0.99625,4.326,3,0,3,FALSE,FALSE
s107,13,34,1,0,1,0,0,1,0.49,3.5883,2,1,1,TRUE,TRUE
s107,14,35,1,0,1,1,1,1,0.3375,5.0798,3,1,2,FALSE,TRUE
s107,15,13,1,0,0,1,0,1,0.71625,5.2684,2,1,1,FALSE,TRUE
s107,16,46,0,0,1,0,1,1,0.32875,5.5443,3,1,2,FALSE,TRUE
s107,17,26,0,0,0,0,1,1,0.31625,2.9035,3,2,1,FALSE,TRUE
s107,18,44,0,0,1,0,0,1,0.995,4.9734,2,0,2,FALSE,FALSE
s107,19,23,0,0,0,1,0,1,0.14375,5.0485,2,2,0,FALSE,FALSE
s107,20,24,0,0,0,0,0,1,0.71125,6.1555,2,1,1,FALSE,TRUE
s107,21,67,0,1,1,1,1,0,0.17625,10.6045,3,2,1,FALSE,TRUE
s107,22,42,0,0,1,0,0,0,0.7175,4.1805,2,1,1,FALSE,TRUE
s107,23,75,1,1,0,1,1,1,0.69875,6.2875,3,1,2,FALSE,TRUE
s107,24,48,0,0,1,0,1,0,0.2675,5.5869,3,2,1,FALSE,TRUE
s107,25,12,1,0,0,0,0,0,0.0025,4.3753,1,1,0,TRUE,FALSE
s107,26,58,1,1,1,0,1,0,0.70125,8.5061,3,2,1,FALSE,TRUE
s107,27,28,0,0,0,0,1,0,0.67,4.0951,2,1,1,FALSE,TRUE
s107,28,45,0,0,1,1,1,1,0.18875,8.2054,3,2,1,FALSE,TRUE
s107,29,77,1,1,0,1,1,0,0.995,3.6389,2,0,2,FALSE,FALSE
s107,30,53,1,1,1,1,0,1,0.71125,5.1438,3,1,2,FALSE,TRUE
s107,31,52,1,1,1,0,0,0,0.005,6.3899,3,3,0,FALSE,FALSE
s107,32,64,0,1,1,0,0,1,0.68375,5.5248,3,1,2,FALSE,TRUE
s107,33,38,1,0,1,0,1,0,0.00375,5.2514,3,3,0,FALSE,FALSE
s107,34,72,1,1,0,0,0,0,0.00875,2.9634,2,2,0,FALSE,FALSE
s107,35,86,0,1,0,0,1,1,0.70875,4.0685,3,1,2,FALSE,TRUE
s107,36,74,1,1,0,0,0,1,0.005,4.3386,3,3,0,FALSE,FALSE
s107,37,78,1,1,0,0,1,0,0.28875,5.7522,2,1,1,TRUE,TRUE
s107,38,88,0,1,0,0,1,0,0.99625,3.4042,2,0,2,FALSE,FALSE
s107,39,71,1,1,0,1,0,0,0.685,6.2283,2,1,1,FALSE,TRUE
s107,40,62,0,1,1,0,0,0,0.24875,5.5579,3,2,1,FALSE,TRUE
s107,41,85,0,1,0,1,1,1,0.1775,5.8234,3,2,1,FALSE,TRUE
s107,42,56,1,1,1,0,1,1,0.7075,6.2868,3,1,2,TRUE,TRUE
s107,43,16,1,0,0,0,1,1,0.00625,4.9752,3,3,0,FALSE,FALSE
s107,44,33,1,0,1,1,0,1,0.99625,4.5468,2,0,2,FALSE,FALSE
s107,45,68,0,1,1,0,1,0,0.71,3.7896,3,1,2,FALSE,TRUE
s107,46,32,1,0,1,0,0,0,0.0075,3.4318,2,2,0,FALSE,FALSE
s107,47,61,0,1,1,1,0,0,0.00625,3.9413,3,3,0,FALSE,FALSE
s107,48,76,1,1,0,0,1,1,0.175,9.3661,3,2,1,FALSE,TRUE
s107,49,17,1,0,0,1,1,0,0.72,4.019,2,1,1,FALSE,TRUE
s107,50,37,1,0,1,1,1,0,0.49,3.8533,3,2,1,FALSE,TRUE
s107,51,25,0,0,0,1,1,1,0.005,4.1366,3,3,0,FALSE,FALSE
s107,52,18,1,0,0,0,1,0,0.0075,2.5145,2,2,0,FALSE,FALSE
s107,53,21,0,0,0,1,0,0,0.0075,1.9779,1,1,0,TRUE,FALSE
s107,54,81,0,1,0,1,0,0,0.0075,2.3085,2,2,0,FALSE,FALSE
s107,55,47,0,0,1,1,1,0,0.0075,2.1239,3,3,0,FALSE,FALSE
s107,56,22,0,0,0,0,0,0,0.99875,3.4217,1,0,1,FALSE,FALSE
s107,57,51,1,1,1,1,0,0,0.235,4.3056,3,2,1,FALSE,TRUE
s107,58,27,0,0,0,1,1,0,0.00375,3.2064,2,2,0,FALSE,FALSE
s107,59,31,1,0,1,1,0,0,0.5,6.1648,2,1,1,FALSE,TRUE
s107,60,36,1,0,1,0,1,1,0.225,5.906,3,2,1,FALSE,TRUE
s107,61,63,0,1,1,1,0,1,0.225,3.0655,3,2,1,FALSE,TRUE
s107,62,14,1,0,0,0,0,1,0.00625,3.3549,2,2,0,FALSE,FALSE
s107,63,84,0,1,0,0,0,1,0.255,5.6174,3,2,1,FALSE,TRUE
s107,64,65,0,1,1,1,1,1,0.51625,6.9925,3,1,2,TRUE,TRUE
s107,65,51,1,1,1,1,0,0,0.25625,4.8797,3,2,1,FALSE,TRUE
s107,66,32,1,0,1,0,0,0,0.01,4.0496,2,2,0,FALSE,FALSE
s107,67,14,1,0,0,0,0,1,0.00875,1.6959,2,2,0,FALSE,FALSE
s107,68,15,1,0,0,1,1,1,0.675,3.9913,3,2,1,FALSE,TRUE
s107,69,27,0,0,0,1,1,0,0.00625,3.4103,2,2,0,FALSE,FALSE
s107,70,48,0,0,1,0,1,0,0.23625,3.9286,3,2,1,FALSE,TRUE
s107,71,82,0,1,0,0,0,0,0.6825,7.7202,2,1,1,FALSE,TRUE
s107,72,63,0,1,1,1,0,1,0.22375,10.1093,3,2,1,FALSE,TRUE
s107,73,31,1,0,1,1,0,0,0.50625,3.3794,2,1,1,FALSE,TRUE
s107,74,62,0,1,1,0,0,0,0.26625,5.8999,3,2,1,FALSE,TRUE
s107,75,74,1,1,0,0,0,1,0.01,2.9307,3,3,0,FALSE,FALSE
s107,76,52,1,1,1,0,0,0,0.01,1.9377,3,3,0,FALSE,FALSE
s107,77,83,0,1,0,1,0,1,0.01,1.762,3,3,0,FALSE,FALSE
s107,78,85,0,1,0,1,1,1,0.2175,6.2701,3,2,1,FALSE,TRUE
s107,79,25,0,0,0,1,1,1,0.0075,2.287,3,3,0,FALSE,FALSE
s107,80,18,1,0,0,0,1,0,0.0075,2.0463,2,2,0,FALSE,FALSE
s107,81,28,0,0,0,0,1,0,0.4975,5.1591,2,1,1,FALSE,TRUE
s107,82,41,0,0,1,1,0,0,0.0075,6.1568,2,2,0,FALSE,FALSE
s107,83,43,0,0,1,1,0,1,0.215,4.4854,2,1,1,TRUE,TRUE
s107,84,13,1,0,0,1,0,1,0.51,3.5315,2,1,1,FALSE,TRUE
s107,85,55,1,1,1,1,1,1,0.995,3.8712,3,0,3,FALSE,FALSE
s107,86,37,1,0,1,1,1,0,0.245,6.514,3,2,1,FALSE,TRUE
s107,87,65,0,1,1,1,1,1,0.52,8.8281,3,1,2,TRUE,TRUE
s107,88,57,1,1,1,1,1,0,0.71875,4.3895,3,1,2,FALSE,TRUE
s107,89,84,0,1,0,0,0,1,0.25625,4.2508,3,2,1,FALSE,TRUE
s107,90,47,0,0,1,1,1,0,0.0075,3.3721,3,3,0,FALSE,FALSE
s107,91,77,1,1,0,1,1,0,0.995,3.5785,2,0,2,FALSE,FALSE
s107,92,16,1,0,0,0,1,1,0.005,6.4486,3,3,0,FALSE,FALSE
s107,93,53,1,1,1,1,0,1,0.7025,5.5667,3,1,2,FALSE,TRUE
s107,94,66,0,1,1,0,1,1,0.99625,4.0506,3,0,3,FALSE,FALSE
s107,95,34,1,0,1,0,0,1,0.2475,7.4903,2,1,1,TRUE,TRUE
s107,96,23,0,0,0,1,0,1,0.00375,4.4122,2,2,0,FALSE,FALSE
s107,97,56,1,1,1,0,1,1,0.49125,13.7745,3,1,2,TRUE,TRUE
s107,98,61,0,1,1,1,0,0,0.0075,4.9797,3,3,0,FALSE,FALSE
s107,99,42,0,0,1,0,0,0,0.4975,9.9662,2,1,1,FALSE,TRUE
s107,100,75,1,1,0,1,1,1,0.7175,6.1301,3,1,2,FALSE,TRUE
s107,101,76,1,1,0,0,1,1,0.23375,5.792,3,2,1,FALSE,TRUE
s107,102,64,0,1,1,0,0,1,0.69125,5.8433,3,1,2,FALSE,TRUE
s107,103,38,1,0,1,0,1,0,0.00625,4.0618,3,3,0,FALSE,FALSE
s107,104,88,0,1,0,0,1,0,0.99125,4.3905,2,0,2,FALSE,FALSE
s107,105,73,1,1,0,1,0,1,0.235,3.6912,3,2,1,FALSE,TRUE
s107,106,78,1,1,0,0,1,0,0.23875,4.3267,2,1,1,TRUE,TRUE
s107,107,17,1,0,0,1,1,0,0.49875,4.4534,2,1,1,FALSE,TRUE
s107,108,68,0,1,1,0,1,0,0.71125,5.0334,3,1,2,FALSE,TRUE
s107,109,33,1,0,1,1,0,1,0.99625,3.0725,2,0,2,FALSE,FALSE
s107,110,24,0,0,0,0,0,1,0.50875,3.9762,2,1,1,FALSE,TRUE
s107,111,21,0,0,0,1,0,0,0.005,3.8125,1,1,0,TRUE,FALSE
s107,112,26,0,0,0,0,1,1,0.255,4.6552,3,2,1,FALSE,TRUE
s107,113,11,1,0,0,1,0,0,0.995,3.1587,1,0,1,FALSE,FALSE
s107,114,12,1,0,0,0,0,0,0.00625,3.3386,1,1,0,TRUE,FALSE
s107,115,44,0,0,1,0,0,1,0.99125,3.0672,2,0,2,FALSE,FALSE
s107,116,87,0,1,0,1,1,0,0.2525,5.4722,2,1,1,TRUE,TRUE
s107,117,45,0,0,1,1,1,1,0.18125,5.4703,3,2,1,FALSE,TRUE
s107,118,67,0,1,1,1,1,0,0.23375,7.2141,3,2,1,FALSE,TRUE
s107,119,22,0,0,0,0,0,0,0.99125,2.6939,1,0,1,FALSE,FALSE
s107,120,58,1,1,1,0,1,0,0.2,6.1377,3,2,1,FALSE,TRUE
s107,121,36,1,0,1,0,1,1,0.20875,5.5376,3,2,1,FALSE,TRUE
s107,122,35,1,0,1,1,1,1,0.67,5.4294,3,1,2,FALSE,TRUE
s107,123,71,1,1,0,1,0,0,0.4875,3.9608,2,1,1,FALSE,TRUE
s107,124,81,0,1,0,1,0,0,0.00875,3.6916,2,2,0,FALSE,FALSE
s107,125,72,1,1,0,0,0,0,0.22,5.0491,2,2,0,FALSE,FALSE
s107,126,86,0,1,0,0,1,1,0.6825,4.7078,3,1,2,FALSE,TRUE
s107,127,46,0,0,1,0,1,1,0.7075,5.9598,3,1,2,FALSE,TRUE
s107,128,54,1,1,1,0,0,1,0.2275,6.0532,3,2,1,FALSE,TRUE
s108,1,48,0,0,1,0,1,0,0.505,4.889,3,2,1,FALSE,TRUE
s108,2,12,1,0,0,0,0,0,0.05375,4.023,1,1,0,TRUE,FALSE
s108,3,47,0,0,1,1,1,0,0.0175,3.071,3,3,0,FALSE,FALSE
s108,4,64,0,1,1,0,0,1,0.74625,3.926,3,1,2,FALSE,TRUE
s108,5,62,0,1,1,0,0,0,0.5725,15.011,3,2,1,FALSE,TRUE
s108,6,34,1,0,1,0,0,1,0.22,4.482,2,1,1,TRUE,TRUE
s108,7,77,1,1,0,1,1,0,0.99875,4.909,2,0,2,FALSE,FALSE
s108,8,18,1,0,0,0,1,0,0.0025,4.212,2,2,0,FALSE,FALSE
s108,9,66,0,1,1,0,1,1,0.99875,3.725,3,0,3,FALSE,FALSE
s108,10,52,1,1,1,0,0,0,0.0275,28.41,3,3,0,FALSE,FALSE
s108,11,37,1,0,1,1,1,0,0.71,3.159,3,2,1,FALSE,TRUE
s108,12,73,1,1,0,1,0,1,0.6975,3.324,3,2,1,FALSE,TRUE
s108,13,42,0,0,1,0,0,0,0.76625,2.623,2,1,1,FALSE,TRUE
s108,14,26,0,0,0,0,1,1,0.75625,4.492,3,2,1,FALSE,TRUE
s108,15,71,1,1,0,1,0,0,0.8025,2.359,2,1,1,FALSE,TRUE
s108,16,84,0,1,0,0,0,1,0.7425,2.346,3,2,1,FALSE,TRUE
s108,17,38,1,0,1,0,1,0,0.00875,3.78,3,3,0,FALSE,FALSE
s108,18,63,0,1,1,1,0,1,0.6,3.076,3,2,1,FALSE,TRUE
s108,19,33,1,0,1,1,0,1,0.9975,3.728,2,0,2,FALSE,FALSE
s108,20,68,0,1,1,0,1,0,0.71,2.876,3,1,2,FALSE,TRUE
s108,21,85,0,1,0,1,1,1,0.195,3.242,3,2,1,FALSE,TRUE
s108,22,43,0,0,1,1,0,1,0.2125,4.974,2,1,1,TRUE,TRUE
s108,23,41,0,0,1,1,0,0,0.00375,3.86,2,2,0,FALSE,FALSE
s108,24,78,1,1,0,0,1,0,0.20625,2.894,2,1,1,TRUE,TRUE
s108,25,32,1,0,1,0,0,0,0.005,3.396,2,2,0,FALSE,FALSE
s108,26,14,1,0,0,0,0,1,0.005,1.676,2,2,0,FALSE,FALSE
s108,27,83,0,1,0,1,0,1,0.00375,2.343,3,3,0,FALSE,FALSE
s108,28,31,1,0,1,1,0,0,0.65375,3.595,2,1,1,FALSE,TRUE
s108,29,67,0,1,1,1,1,0,0.235,3.958,3,2,1,FALSE,TRUE
s108,30,35,1,0,1,1,1,1,0.77875,4.26,3,1,2,FALSE,TRUE
s108,31,75,1,1,0,1,1,1,0.84875,2.459,3,1,2,FALSE,TRUE
s108,32,46,0,0,1,0,1,1,0.82375,7.51,3,1,2,FALSE,TRUE
s108,33,87,0,1,0,1,1,0,0.28875,8.259,2,1,1,TRUE,TRUE
s108,34,53,1,1,1,1,0,1,0.69625,3.845,3,1,2,FALSE,TRUE
s108,35,17,1,0,0,1,1,0,0.28,4.917,2,1,1,FALSE,TRUE
s108,36,25,0,0,0,1,1,1,0.09,3.246,3,3,0,FALSE,FALSE
s108,37,22,0,0,0,0,0,0,0.99625,4.936,1,0,1,FALSE,FALSE
s108,38,21,0,0,0,1,0,0,0.00375,2.773,1,1,0,TRUE,FALSE
s108,39,56,1,1,1,0,1,1,0.42,3.008,3,1,2,TRUE,TRUE
s108,40,82,0,1,0,0,0,0,0.61625,2.394,2,1,1,FALSE,TRUE
s108,41,57,1,1,1,1,1,0,0.7075,6.724,3,1,2,FALSE,TRUE
s108,42,45,0,0,1,1,1,1,0.22,3.676,3,2,1,FALSE,TRUE
s108,43,27,0,0,0,1,1,0,0.0225,6.746,2,2,0,FALSE,FALSE
s108,44,44,0,0,1,0,0,1,0.99875,4.378,2,0,2,FALSE,FALSE
s108,45,36,1,0,1,0,1,1,0.13875,3.459,3,2,1,FALSE,TRUE
s108,46,74,1,1,0,0,0,1,0.005,4.977,3,3,0,FALSE,FALSE
s108,47,76,1,1,0,0,1,1,0.2875,3.441,3,2,1,FALSE,TRUE
s108,48,88,0,1,0,0,1,0,0.99375,5.23,2,0,2,FALSE,FALSE
s108,49,65,0,1,1,1,1,1,0.21375,3.259,3,1,2,TRUE,TRUE
s108,50,72,1,1,0,0,0,0,0.00375,2.73,2,2,0,FALSE,FALSE
s108,51,16,1,0,0,0,1,1,0.00375,1.809,3,3,0,FALSE,FALSE
s108,52,28,0,0,0,0,1,0,0.4475,2.728,2,1,1,FALSE,TRUE
s108,53,11,1,0,0,1,0,0,0.99625,2.795,1,0,1,FALSE,FALSE
s108,54,58,1,1,1,0,1,0,0.1575,3.225,3,2,1,FALSE,TRUE
s108,55,86,0,1,0,0,1,1,0.7275,2.761,3,1,2,FALSE,TRUE
s108,56,55,1,1,1,1,1,1,0.99375,3.291,3,0,3,FALSE,FALSE
s108,57,54,1,1,1,0,0,1,0.1775,3.221,3,2,1,FALSE,TRUE
s108,58,61,0,1,1,1,0,0,0.00625,2.933,3,3,0,FALSE,FALSE
s108,59,81,0,1,0,1,0,0,0.00375,3.81,2,2,0,FALSE,FALSE
s108,60,15,1,0,0,1,1,1,0.45875,3.358,3,2,1,FALSE,TRUE
s108,61,24,0,0,0,0,0,1,0.65625,2.251,2,1,1,FALSE,TRUE
s108,62,23,0,0,0,1,0,1,0.0025,2.743,2,2,0,FALSE,FALSE
s108,63,51,1,1,1,1,0,0,0.68125,4.027,3,2,1,FALSE,TRUE
s108,64,13,1,0,0,1,0,1,0.565,9.975,2,1,1,FALSE,TRUE
s108,65,66,0,1,1,0,1,1,0.99375,2.374,3,0,3,FALSE,FALSE
s108,66,87,0,1,0,1,1,0,0.6125,2.58,2,1,1,TRUE,TRUE
s108,67,13,1,0,0,1,0,1,0.59375,2.36,2,1,1,FALSE,TRUE
s108,68,86,0,1,0,0,1,1,0.72875,2.249,3,1,2,FALSE,TRUE
s108,69,73,1,1,0,1,0,1,0.55,3.118,3,2,1,FALSE,TRUE
s108,70,24,0,0,0,0,0,1,0.635,2.659,2,1,1,FALSE,TRUE
s108,71,75,1,1,0,1,1,1,0.71,2.545,3,1,2,FALSE,TRUE
s108,72,25,0,0,0,1,1,1,0.005,8.128,3,3,0,FALSE,FALSE
s108,73,44,0,0,1,0,0,1,0.9975,5.064,2,0,2,FALSE,FALSE
s108,74,85,0,1,0,1,1,1,0.1475,3.296,3,2,1,FALSE,TRUE
s108,75,36,1,0,1,0,1,1,0.13,2.613,3,2,1,FALSE,TRUE
s108,76,37,1,0,1,1,1,0,0.42,5.88,3,2,1,FALSE,TRUE
s108,77,76,1,1,0,0,1,1,0.34,3.205,3,2,1,FALSE,TRUE
s108,78,67,0,1,1,1,1,0,0.34,2.193,3,2,1,FALSE,TRUE
s108,79,51,1,1,1,1,0,0,0.53,5.637,3,2,1,FALSE,TRUE
s108,80,77,1,1,0,1,1,0,0.99625,3.127,2,0,2,FALSE,FALSE
s108,81,41,0,0,1,1,0,0,0.00625,4.181,2,2,0,FALSE,FALSE
s108,82,71,1,1,0,1,0,0,0.395,7.194,2,1,1,FALSE,TRUE
s108,83,21,0,0,0,1,0,0,0.00375,2.564,1,1,0,TRUE,FALSE
s108,84,61,0,1,1,1,0,0,0.00375,5.23,3,3,0,FALSE,FALSE
s108,85,23,0,0,0,1,0,1,0.00375,2.059,2,2,0,FALSE,FALSE
s108,86,22,0,0,0,0,0,0,0.995,2.892,1,0,1,FALSE,FALSE
s108,87,47,0,0,1,1,1,0,0.00375,3.422,3,3,0,FALSE,FALSE
s108,88,88,0,1,0,0,1,0,0.99375,2.778,2,0,2,FALSE,FALSE
s108,89,18,1,0,0,0,1,0,0.0025,3.146,2,2,0,FALSE,FALSE
s108,90,68,0,1,1,0,1,0,0.7675,3.245,3,1,2,FALSE,TRUE
s108,91,64,0,1,1,0,0,1,0.60875,2.441,3,1,2,FALSE,TRUE
s108,92,81,0,1,0,1,0,0,0.0075,3.125,2,2,0,FALSE,FALSE
s108,93,84,0,1,0,0,0,1,0.49875,3.211,3,2,1,FALSE,TRUE
s108,94,17,1,0,0,1,1,0,0.6,2.554,2,1,1,FALSE,TRUE
s108,95,26,0,0,0,0,1,1,0.45875,3.009,3,2,1,FALSE,TRUE
s108,96,83,0,1,0,1,0,1,0.015,2.66,3,3,0,FALSE,FALSE
s108,97,46,0,0,1,0,1,1,0.57,3.176,3,1,2,FALSE,TRUE
s108,98,55,1,1,1,1,1,1,0.99375,3.577,3,0,3,FALSE,FALSE
s108,99,57,1,1,1,1,1,0,0.73875,2.626,3,1,2,FALSE,TRUE
s108,100,43,0,0,1,1,0,1,0.3725,2.86,2,1,1,TRUE,TRUE
s108,101,15,1,0,0,1,1,1,0.41375,3.393,3,2,1,FALSE,TRUE
s108,102,48,0,0,1,0,1,0,0.775,3.046,3,2,1,FALSE,TRUE
s108,103,56,1,1,1,0,1,1,0.51375,5.476,3,1,2,TRUE,TRUE
s108,104,14,1,0,0,0,0,1,0.0025,3.499,2,2,0,FALSE,FALSE
s108,105,42,0,0,1,0,0,0,0.545,9.479,2,1,1,FALSE,TRUE
s108,106,38,1,0,1,0,1,0,0.00125,2.883,3,3,0,FALSE,FALSE
s108,107,11,1,0,0,1,0,0,0.99875,2.64,1,0,1,FALSE,FALSE
s108,108,33,1,0,1,1,0,1,0.99875,2.626,2,0,2,FALSE,FALSE
s108,109,78,1,1,0,0,1,0,0.335,3.977,2,1,1,TRUE,TRUE
s108,110,72,1,1,0,0,0,0,0.005,4.11,2,2,0,FALSE,FALSE
s108,111,45,0,0,1,1,1,1,0.2075,2.904,3,2,1,FALSE,TRUE
s108,112,54,1,1,1,0,0,1,0.1875,2.878,3,2,1,FALSE,TRUE
s108,113,53,1,1,1,1,0,1,0.705,20.916,3,1,2,FALSE,TRUE
s108,114,52,1,1,1,0,0,0,0.00875,8.584,3,3,0,FALSE,FALSE
s108,115,28,0,0,0,0,1,0,0.59,5.56,2,1,1,FALSE,TRUE
s108,116,62,0,1,1,0,0,0,0.24375,3.026,3,2,1,FALSE,TRUE
s108,117,31,1,0,1,1,0,0,0.6225,12.14,2,1,1,FALSE,TRUE
s108,118,65,0,1,1,1,1,1,0.4125,5.158,3,1,2,TRUE,TRUE
s108,119,12,1,0,0,0,0,0,0.005,5.109,1,1,0,TRUE,FALSE
s108,120,82,0,1,0,0,0,0,0.52625,2.693,2,1,1,FALSE,TRUE
s108,121,74,1,1,0,0,0,1,0.00625,6.701,3,3,0,FALSE,FALSE
s108,122,34,1,0,1,0,0,1,0.19,2.694,2,1,1,TRUE,TRUE
s108,123,58,1,1,1,0,1,0,0.17625,3.695,3,2,1,FALSE,TRUE
s108,124,27,0,0,0,1,1,0,0.005,2.982,2,2,0,FALSE,FALSE
s108,125,32,1,0,1,0,0,0,0.005,7.489,2,2,0,FALSE,FALSE
s108,126,16,1,0,0,0,1,1,0.005,1.78,3,3,0,FALSE,FALSE
s108,127,35,1,0,1,1,1,1,0.5375,4.565,3,1,2,FALSE,TRUE
s108,128,63,0,1,1,1,0,1,0.08375,3.419,3,2,1,FALSE,TRUE
s109,1,41,0,0,1,1,0,0,0.00375,2.6886,2,2,0,FALSE,FALSE
s109,2,28,0,0,0,0,1,0,0.69875,2.0106,2,1,1,FALSE,TRUE
s109,3,51,1,1,1,1,0,0,0.40125,2.5137,3,2,1,FALSE,TRUE
s109,4,12,1,0,0,0,0,0,0.10125,2.224,1,1,0,TRUE,FALSE
s109,5,22,0,0,0,0,0,0,0.9975,2.2877,1,0,1,FALSE,FALSE
s109,6,47,0,0,1,1,1,0,0.00875,6.6661,3,3,0,FALSE,FALSE
s109,7,43,0,0,1,1,0,1,0.57625,2.0895,2,1,1,TRUE,TRUE
s109,8,77,1,1,0,1,1,0,0.9975,2.6092,2,0,2,FALSE,FALSE
s109,9,68,0,1,1,0,1,0,0.6425,2.1412,3,1,2,FALSE,TRUE
s109,10,81,0,1,0,1,0,0,0.0025,2.4388,2,2,0,FALSE,FALSE
s109,11,33,1,0,1,1,0,1,0.99875,2.5065,2,0,2,FALSE,FALSE
s109,12,34,1,0,1,0,0,1,0.45875,3.1129,2,1,1,TRUE,TRUE
s109,13,48,0,0,1,0,1,0,0.22,2.243,3,2,1,FALSE,TRUE
s109,14,26,0,0,0,0,1,1,0.4825,2.6263,3,2,1,FALSE,TRUE
s109,15,83,0,1,0,1,0,1,0.015,2.2981,3,3,0,FALSE,FALSE
s109,16,37,1,0,1,1,1,0,0.59,2.2955,3,2,1,FALSE,TRUE
s109,17,18,1,0,0,0,1,0,0.03125,2.6561,2,2,0,FALSE,FALSE
s109,18,15,1,0,0,1,1,1,0.58875,3.6071,3,2,1,FALSE,TRUE
s109,19,21,0,0,0,1,0,0,0.005,2.8931,1,1,0,TRUE,FALSE
s109,20,42,0,0,1,0,0,0,0.60375,2.4065,2,1,1,FALSE,TRUE
s109,21,71,1,1,0,1,0,0,0.60625,1.9612,2,1,1,FALSE,TRUE
s109,22,58,1,1,1,0,1,0,0.02125,3.3784,3,2,1,FALSE,TRUE
s109,23,35,1,0,1,1,1,1,0.67,3.5407,3,1,2,FALSE,TRUE
s109,24,27,0,0,0,1,1,0,0.00875,2.3819,2,2,0,FALSE,FALSE
s109,25,38,1,0,1,0,1,0,0.00625,2.197,3,3,0,FALSE,FALSE
s109,26,88,0,1,0,0,1,0,0.99625,2.3745,2,0,2,FALSE,FALSE
s109,27,23,0,0,0,1,0,1,0.1575,2.2547,2,2,0,FALSE,FALSE
s109,28,16,1,0,0,0,1,1,0.16375,3.3067,3,3,0,FALSE,FALSE
s109,29,44,0,0,1,0,0,1,0.99625,2.0085,2,0,2,FALSE,FALSE
s109,30,45,0,0,1,1,1,1,0.185,3.372,3,2,1,FALSE,TRUE
s109,31,73,1,1,0,1,0,1,0.33125,2.5461,3,2,1,FALSE,TRUE
s109,32,13,1,0,0,1,0,1,0.67375,2.0229,2,1,1,FALSE,TRUE
s109,33,65,0,1,1,1,1,1,0.6875,2.8089,3,1,2,TRUE,TRUE
s109,34,67,0,1,1,1,1,0,0.365,2.9731,3,2,1,FALSE,TRUE
s109,35,64,0,1,1,0,0,1,0.49875,2.3388,3,1,2,FALSE,TRUE
s109,36,82,0,1,0,0,0,0,0.705,2.377,2,1,1,FALSE,TRUE
s109,37,46,0,0,1,0,1,1,0.72875,2.6573,3,1,2,FALSE,TRUE
s109,38,11,1,0,0,1,0,0,0.995,3.438,1,0,1,FALSE,FALSE
s109,39,17,1,0,0,1,1,0,0.79375,3.2829,2,1,1,FALSE,TRUE
s109,40,63,0,1,1,1,0,1,0.3225,3.1948,3,2,1,FALSE,TRUE
s109,41,85,0,1,0,1,1,1,0.22125,2.6548,3,2,1,FALSE,TRUE
s109,42,25,0,0,0,1,1,1,0.00125,2.242,3,3,0,FALSE,FALSE
s109,43,54,1,1,1,0,0,1,0.29625,3.8554,3,2,1,FALSE,TRUE
s109,44,76,1,1,0,0,1,1,0.2075,3.5057,3,2,1,FALSE,TRUE
s109,45,62,0,1,1,0,0,0,0.32875,2.3219,3,2,1,FALSE,TRUE
s109,46,14,1,0,0,0,0,1,0.015,4.2794,2,2,0,FALSE,FALSE
s109,47,53,1,1,1,1,0,1,0.63125,3.6585,3,1,2,FALSE,TRUE
s109,48,78,1,1,0,0,1,0,0.535,3.063,2,1,1,TRUE,TRUE
s109,49,84,0,1,0,0,0,1,0.3275,4.8096,3,2,1,FALSE,TRUE
s109,50,36,1,0,1,0,1,1,0.24875,2.2712,3,2,1,FALSE,TRUE
s109,51,55,1,1,1,1,1,1,0.995,2.789,3,0,3,FALSE,FALSE
s109,52,57,1,1,1,1,1,0,0.66625,8.1092,3,1,2,FALSE,TRUE
s109,53,52,1,1,1,0,0,0,0.0075,2.4492,3,3,0,FALSE,FALSE
s109,54,75,1,1,0,1,1,1,0.34375,2.0713,3,1,2,FALSE,TRUE
s109,55,66,0,1,1,0,1,1,0.99375,2.7234,3,0,3,FALSE,FALSE
s109,56,31,1,0,1,1,0,0,0.6625,1.9401,2,1,1,FALSE,TRUE
s109,57,32,1,0,1,0,0,0,0.00625,1.9228,2,2,0,FALSE,FALSE
s109,58,72,1,1,0,0,0,0,0.00625,1.8765,2,2,0,FALSE,FALSE
s109,59,56,1,1,1,0,1,1,0.65125,2.9585,3,1,2,TRUE,TRUE
s109,60,74,1,1,0,0,0,1,0.015,2.1376,3,3,0,FALSE,FALSE
s109,61,24,0,0,0,0,0,1,0.3975,2.6899,2,1,1,FALSE,TRUE
s109,62,86,0,1,0,0,1,1,0.6575,4.5962,3,1,2,FALSE,TRUE
s109,63,61,0,1,1,1,0,0,0.00875,2.7989,3,3,0,FALSE,FALSE
s109,64,87,0,1,0,1,1,0,0.35875,2.7394,2,1,1,TRUE,TRUE
s109,65,72,1,1,0,0,0,0,0.015,2.9732,2,2,0,FALSE,FALSE
s109,66,68,0,1,1,0,1,0,0.695,4.0563,3,1,2,FALSE,TRUE
s109,67,42,0,0,1,0,0,0,0.70375,4.7972,2,1,1,FALSE,TRUE
s109,68,45,0,0,1,1,1,1,0.4775,5.6318,3,2,1,FALSE,TRUE
s109,69,38,1,0,1,0,1,0,0.0575,1.9966,3,3,0,FALSE,FALSE
s109,70,57,1,1,1,1,1,0,0.75625,4.0238,3,1,2,FALSE,TRUE
s109,71,28,0,0,0,0,1,0,0.245,3.6783,2,1,1,FALSE,TRUE
s109,72,77,1,1,0,1,1,0,0.99125,3.6112,2,0,2,FALSE,FALSE
s109,73,75,1,1,0,1,1,1,0.77875,1.8279,3,1,2,FALSE,TRUE
s109,74,73,1,1,0,1,0,1,0.51,2.791,3,2,1,FALSE,TRUE
s109,75,56,1,1,1,0,1,1,0.76,3.8055,3,1,2,TRUE,TRUE
s109,76,84,0,1,0,0,0,1,0.5125,3.0579,3,2,1,FALSE,TRUE
s109,77,83,0,1,0,1,0,1,0.0025,3.0738,3,3,0,FALSE,FALSE
s109,78,32,1,0,1,0,0,0,0.01,1.6589,2,2,0,FALSE,FALSE
s109,79,26,0,0,0,0,1,1,0.535,2.5104,3,2,1,FALSE,TRUE
s109,80,61,0,1,1,1,0,0,0.0075,2.1441,3,3,0,FALSE,FALSE
s109,81,35,1,0,1,1,1,1,0.79625,4.8312,3,1,2,FALSE,TRUE
s109,82,12,1,0,0,0,0,0,0.0025,1.8899,1,1,0,TRUE,FALSE
s109,83,43,0,0,1,1,0,1,0.52125,2.7405,2,1,1,TRUE,TRUE
s109,84,81,0,1,0,1,0,0,0.01125,2.9413,2,2,0,FALSE,FALSE
s109,85,24,0,0,0,0,0,1,0.51125,2.7734,2,1,1,FALSE,TRUE
s109,86,46,0,0,1,0,1,1,0.7275,1.9722,3,1,2,FALSE,TRUE
s109,87,34,1,0,1,0,0,1,0.49875,2.2437,2,1,1,TRUE,TRUE
s109,88,33,1,0,1,1,0,1,0.99125,1.7072,2,0,2,FALSE,FALSE
s109,89,65,0,1,1,1,1,1,0.74375,1.873,3,1,2,TRUE,TRUE
s109,90,67,0,1,1,1,1,0,0.38625,2.9893,3,2,1,FALSE,TRUE
s109,91,87,0,1,0,1,1,0,0.48625,3.0769,2,1,1,TRUE,TRUE
s109,92,76,1,1,0,0,1,1,0.38,2.7309,3,2,1,FALSE,TRUE
s109,93,66,0,1,1,0,1,1,0.9975,1.8452,3,0,3,FALSE,FALSE
s109,94,37,1,0,1,1,1,0,0.25375,2.7043,3,2,1,FALSE,TRUE
s109,95,23,0,0,0,1,0,1,0.0075,2.2074,2,2,0,FALSE,FALSE
s109,96,53,1,1,1,1,0,1,0.765,5.5317,3,1,2,FALSE,TRUE
s109,97,64,0,1,1,0,0,1,0.53,2.3446,3,1,2,FALSE,TRUE
s109,98,86,0,1,0,0,1,1,0.81375,2.3055,3,1,2,FALSE,TRUE
s109,99,21,0,0,0,1,0,0,0.00625,2.0096,1,1,0,TRUE,FALSE
s109,100,74,1,1,0,0,0,1,0.00625,2.8068,3,3,0,FALSE,FALSE
s109,101,55,1,1,1,1,1,1,0.9725,2.0986,3,0,3,FALSE,FALSE
s109,102,71,1,1,0,1,0,0,0.665,1.9053,2,1,1,FALSE,TRUE
s109,103,85,0,1,0,1,1,1,0.25875,3.1414,3,2,1,FALSE,TRUE
s109,104,44,0,0,1,0,0,1,0.9675,2.1709,2,0,2,FALSE,FALSE
s109,105,31,1,0,1,1,0,0,0.64875,1.6714,2,1,1,FALSE,TRUE
s109,106,52,1,1,1,0,0,0,0.15875,2.0385,3,3,0,FALSE,FALSE
s109,107,51,1,1,1,1,0,0,0.22625,2.9892,3,2,1,FALSE,TRUE
s109,108,13,1,0,0,1,0,1,0.52,2.0162,2,1,1,FALSE,TRUE
s109,109,58,1,1,1,0,1,0,0.25125,2.1554,3,2,1,FALSE,TRUE
s109,110,63,0,1,1,1,0,1,0.3,2.4442,3,2,1,FALSE,TRUE
s109,111,11,1,0,0,1,0,0,0.99,1.9765,1,0,1,FALSE,FALSE
s109,112,15,1,0,0,1,1,1,0.2525,2.2553,3,2,1,FALSE,TRUE
s109,113,22,0,0,0,0,0,0,0.9875,1.9101,1,0,1,FALSE,FALSE
s109,114,41,0,0,1,1,0,0,0.0125,2.2395,2,2,0,FALSE,FALSE
s109,115,14,1,0,0,0,0,1,0.01625,1.8306,2,2,0,FALSE,FALSE
s109,116,36,1,0,1,0,1,1,0.20625,2.6438,3,2,1,FALSE,TRUE
s109,117,88,0,1,0,0,1,0,0.99375,1.8401,2,0,2,FALSE,FALSE
s109,118,48,0,0,1,0,1,0,0.0275,2.305,3,2,1,FALSE,TRUE
s109,119,27,0,0,0,1,1,0,0.01875,2.0485,2,2,0,FALSE,FALSE
s109,120,18,1,0,0,0,1,0,0.01625,2.3287,2,2,0,FALSE,FALSE
s109,121,16,1,0,0,0,1,1,0.01125,1.9079,3,3,0,FALSE,FALSE
s109,122,62,0,1,1,0,0,0,0.2075,2.2773,3,2,1,FALSE,TRUE
s109,123,47,0,0,1,1,1,0,0.01375,2.0377,3,3,0,FALSE,FALSE
s109,124,25,0,0,0,1,1,1,0.0225,2.3323,3,3,0,FALSE,FALSE
s109,125,78,1,1,0,0,1,0,0.12,2.6222,2,1,1,TRUE,TRUE
s109,126,54,1,1,1,0,0,1,0.08625,2.2963,3,2,1,FALSE,TRUE
s109,127,82,0,1,0,0,0,0,0.51375,2.5114,2,1,1,FALSE,TRUE
s109,128,17,1,0,0,1,1,0,0.49125,2.0226,2,1,1,FALSE,TRUE
s1010,1,86,0,1,0,0,1,1,0.826494141,3.6786,3,1,2,FALSE,TRUE
s1010,2,31,1,0,1,1,0,0,0.815117188,2.2026,2,1,1,FALSE,TRUE
s1010,3,88,0,1,0,0,1,0,0.995517578,3.9204,2,0,2,FALSE,FALSE
s1010,4,41,0,0,1,1,0,0,0.118828125,2.0892,2,2,0,FALSE,FALSE
s1010,5,73,1,1,0,1,0,1,0.506586914,3.0217,3,2,1,FALSE,TRUE
s1010,6,57,1,1,1,1,1,0,0.7946875,3.6521,3,1,2,FALSE,TRUE
s1010,7,68,0,1,1,0,1,0,0.7946875,1.6901,3,1,2,FALSE,TRUE
s1010,8,66,0,1,1,0,1,1,0.996787109,4.021,3,0,3,FALSE,FALSE
s1010,9,53,1,1,1,1,0,1,0.867583008,3.7894,3,1,2,FALSE,TRUE
s1010,10,78,1,1,0,0,1,0,0.722749023,2.8888,2,1,1,TRUE,TRUE
s1010,11,76,1,1,0,0,1,1,0.564975586,3.9365,3,2,1,FALSE,TRUE
s1010,12,67,0,1,1,1,1,0,0.368994141,6.7072,3,2,1,FALSE,TRUE
s1010,13,27,0,0,0,1,1,0,0.021118164,4.9219,2,2,0,FALSE,FALSE
s1010,14,25,0,0,0,1,1,1,0.020976563,1.6202,3,3,0,FALSE,FALSE
s1010,15,22,0,0,0,0,0,0,0.99690918,2.87,1,0,1,FALSE,FALSE
s1010,16,45,0,0,1,1,1,1,0.338950195,3.2365,3,2,1,FALSE,TRUE
s1010,17,48,0,0,1,0,1,0,0.446469727,2.5368,3,2,1,FALSE,TRUE
s1010,18,62,0,1,1,0,0,0,0.367431641,4.8372,3,2,1,FALSE,TRUE
s1010,19,43,0,0,1,1,0,1,0.410429687,5.7051,2,1,1,TRUE,TRUE
s1010,20,35,1,0,1,1,1,1,0.563881836,2.0054,3,1,2,FALSE,TRUE
s1010,21,85,0,1,0,1,1,1,0.314121094,3.1851,3,2,1,FALSE,TRUE
s1010,22,71,1,1,0,1,0,0,0.293198242,1.7388,2,1,1,FALSE,TRUE
s1010,23,82,0,1,0,0,0,0,0.218461914,4.121,2,1,1,FALSE,TRUE
s1010,24,65,0,1,1,1,1,1,0.219462891,2.1037,3,1,2,TRUE,TRUE
s1010,25,23,0,0,0,1,0,1,0.014282227,2.7866,2,2,0,FALSE,FALSE
s1010,26,17,1,0,0,1,1,0,0.406967773,2.5404,2,1,1,FALSE,TRUE
s1010,27,24,0,0,0,0,0,1,0.765283203,2.0188,2,1,1,FALSE,TRUE
s1010,28,77,1,1,0,1,1,0,0.996655273,2.5537,2,0,2,FALSE,FALSE
s1010,29,74,1,1,0,0,0,1,0.001552734,2.3374,3,3,0,FALSE,FALSE
s1010,30,37,1,0,1,1,1,0,0.672978516,2.2055,3,2,1,FALSE,TRUE
s1010,31,12,1,0,0,0,0,0,0.001982422,2.5392,1,1,0,TRUE,FALSE
s1010,32,13,1,0,0,1,0,1,0.982397461,2.9393,2,1,1,FALSE,TRUE
s1010,33,38,1,0,1,0,1,0,0.002744141,181.6574,3,3,0,FALSE,FALSE
s1010,34,61,0,1,1,1,0,0,0.087436523,2.9706,3,3,0,FALSE,FALSE
s1010,35,52,1,1,1,0,0,0,0.007265625,2.1362,3,3,0,FALSE,FALSE
s1010,36,83,0,1,0,1,0,1,0.015957031,2.1552,3,3,0,FALSE,FALSE
s1010,37,44,0,0,1,0,0,1,0.994609375,2.439,2,0,2,FALSE,FALSE
s1010,38,51,1,1,1,1,0,0,0.502797852,2.4347,3,2,1,FALSE,TRUE
s1010,39,21,0,0,0,1,0,0,0.108364258,3.2224,1,1,0,TRUE,FALSE
s1010,40,54,1,1,1,0,0,1,0.236518555,2.6722,3,2,1,FALSE,TRUE
s1010,41,33,1,0,1,1,0,1,0.997802734,2.1546,2,0,2,FALSE,FALSE
s1010,42,34,1,0,1,0,0,1,0.392700195,2.4372,2,1,1,TRUE,TRUE
s1010,43,72,1,1,0,0,0,0,0.006640625,4.4741,2,2,0,FALSE,FALSE
s1010,44,32,1,0,1,0,0,0,0.007265625,1.5043,2,2,0,FALSE,FALSE
s1010,45,36,1,0,1,0,1,1,0.232524414,2.3677,3,2,1,FALSE,TRUE
s1010,46,15,1,0,0,1,1,1,0.2434375,2.2524,3,2,1,FALSE,TRUE
s1010,47,84,0,1,0,0,0,1,0.23027832,2.436,3,2,1,FALSE,TRUE
s1010,48,42,0,0,1,0,0,0,0.327919922,1.8025,2,1,1,FALSE,TRUE
s1010,49,64,0,1,1,0,0,1,0.570361328,2.3712,3,1,2,FALSE,TRUE
s1010,50,55,1,1,1,1,1,1,0.995830078,3.2551,3,0,3,FALSE,FALSE
s1010,51,46,0,0,1,0,1,1,0.783256836,2.355,3,1,2,FALSE,TRUE
s1010,52,26,0,0,0,0,1,1,0.153540039,3.6859,3,2,1,FALSE,TRUE
s1010,53,16,1,0,0,0,1,1,0.16359375,156.8941,3,3,0,FALSE,FALSE
s1010,54,81,0,1,0,1,0,0,0.099887695,1.8216,2,2,0,FALSE,FALSE
s1010,55,14,1,0,0,0,0,1,0.091391602,1.5378,2,2,0,FALSE,FALSE
s1010,56,11,1,0,0,1,0,0,0.999482422,2.2219,1,0,1,FALSE,FALSE
s1010,57,28,0,0,0,0,1,0,0.587172852,2.2687,2,1,1,FALSE,TRUE
s1010,58,58,1,1,1,0,1,0,0.17980957,2.6049,3,2,1,FALSE,TRUE
s1010,59,56,1,1,1,0,1,1,0.179213867,2.4383,3,1,2,TRUE,TRUE
s1010,60,63,0,1,1,1,0,1,0.170917969,2.8545,3,2,1,FALSE,TRUE
s1010,61,47,0,0,1,1,1,0,0.121279297,1.5727,3,3,0,FALSE,FALSE
s1010,62,75,1,1,0,1,1,1,0.874174805,3.1888,3,1,2,FALSE,TRUE
s1010,63,87,0,1,0,1,1,0,0.650449219,3.1202,2,1,1,TRUE,TRUE
s1010,64,18,1,0,0,0,1,0,0.181621094,2.4875,2,2,0,FALSE,FALSE
s1010,65,67,0,1,1,1,1,0,0.148876953,2.5525,3,2,1,FALSE,TRUE
s1010,66,41,0,0,1,1,0,0,0.132807617,1.5533,2,2,0,FALSE,FALSE
s1010,67,15,1,0,0,1,1,1,0.857304687,2.2398,3,2,1,FALSE,TRUE
s1010,68,21,0,0,0,1,0,0,0.113452148,2.1364,1,1,0,TRUE,FALSE
s1010,69,65,0,1,1,1,1,1,0.665771484,3.3716,3,1,2,TRUE,TRUE
s1010,70,87,0,1,0,1,1,0,0.542807617,2.5368,2,1,1,TRUE,TRUE
s1010,71,53,1,1,1,1,0,1,0.552993164,1.9356,3,1,2,FALSE,TRUE
s1010,72,36,1,0,1,0,1,1,0.337011719,2.9549,3,2,1,FALSE,TRUE
s1010,73,72,1,1,0,0,0,0,0.012197266,3.5201,2,2,0,FALSE,FALSE
s1010,74,52,1,1,1,0,0,0,0.012197266,1.5028,3,3,0,FALSE,FALSE
s1010,75,54,1,1,1,0,0,1,0.104936523,3.3857,3,2,1,FALSE,TRUE
s1010,76,38,1,0,1,0,1,0,0.006665039,3.1701,3,3,0,FALSE,FALSE
s1010,77,33,1,0,1,1,0,1,0.996171875,2.788,2,0,2,FALSE,FALSE
s1010,78,78,1,1,0,0,1,0,0.419707031,2.6133,2,1,1,TRUE,TRUE
s1010,79,61,0,1,1,1,0,0,0.011572266,2.6034,3,3,0,FALSE,FALSE
s1010,80,48,0,0,1,0,1,0,0.481269531,3.8567,3,2,1,FALSE,TRUE
s1010,81,34,1,0,1,0,0,1,0.481894531,1.7374,2,1,1,TRUE,TRUE
s1010,82,44,0,0,1,0,0,1,0.997353516,2.2559,2,0,2,FALSE,FALSE
s1010,83,85,0,1,0,1,1,1,0.269995117,4.0703,3,2,1,FALSE,TRUE
s1010,84,62,0,1,1,0,0,0,0.310576172,148.5589,3,2,1,FALSE,TRUE
s1010,85,56,1,1,1,0,1,1,0.567446289,2.0224,3,1,2,TRUE,TRUE
s1010,86,26,0,0,0,0,1,1,0.588618164,1.5363,3,2,1,FALSE,TRUE
s1010,87,16,1,0,0,0,1,1,0.007133789,2.0047,3,3,0,FALSE,FALSE
s1010,88,58,1,1,1,0,1,0,0.024199219,2.1194,3,2,1,FALSE,TRUE
s1010,89,11,1,0,0,1,0,0,0.998842773,1.9199,1,0,1,FALSE,FALSE
s1010,90,63,0,1,1,1,0,1,0.22956543,2.6877,3,2,1,FALSE,TRUE
s1010,91,24,0,0,0,0,0,1,0.651567383,2.1555,2,1,1,FALSE,TRUE
s1010,92,45,0,0,1,1,1,1,0.278476562,2.0705,3,2,1,FALSE,TRUE
s1010,93,35,1,0,1,1,1,1,0.57465332,1.9902,3,1,2,FALSE,TRUE
s1010,94,57,1,1,1,1,1,0,0.606616211,2.953,3,1,2,FALSE,TRUE
s1010,95,14,1,0,0,0,0,1,0.017021484,58.0207,2,2,0,FALSE,FALSE
s1010,96,12,1,0,0,0,0,0,0.064604492,2.1198,1,1,0,TRUE,FALSE
s1010,97,73,1,1,0,1,0,1,0.477797852,2.7185,3,2,1,FALSE,TRUE
s1010,98,64,0,1,1,0,0,1,0.558735352,2.2886,3,1,2,FALSE,TRUE
s1010,99,83,0,1,0,1,0,1,0.011953125,2.3533,3,3,0,FALSE,FALSE
s1010,100,75,1,1,0,1,1,1,0.588598633,2.4552,3,1,2,FALSE,TRUE
s1010,101,43,0,0,1,1,0,1,0.468886719,3.1371,2,1,1,TRUE,TRUE
s1010,102,47,0,0,1,1,1,0,0.012514648,2.2893,3,3,0,FALSE,FALSE
s1010,103,42,0,0,1,0,0,0,0.6346875,2.0038,2,1,1,FALSE,TRUE
s1010,104,71,1,1,0,1,0,0,0.629418945,1.9377,2,1,1,FALSE,TRUE
s1010,105,27,0,0,0,1,1,0,0.009228516,2.1046,2,2,0,FALSE,FALSE
s1010,106,51,1,1,1,1,0,0,0.290004883,2.1215,3,2,1,FALSE,TRUE
s1010,107,32,1,0,1,0,0,0,0.024863281,2.9403,2,2,0,FALSE,FALSE
s1010,108,86,0,1,0,0,1,1,0.699643555,2.4714,3,1,2,FALSE,TRUE
s1010,109,17,1,0,0,1,1,0,0.562749023,1.9346,2,1,1,FALSE,TRUE
s1010,110,13,1,0,0,1,0,1,0.659990234,1.5689,2,1,1,FALSE,TRUE
s1010,111,77,1,1,0,1,1,0,0.991293945,2.1014,2,0,2,FALSE,FALSE
s1010,112,25,0,0,0,1,1,1,0.005097656,1.9879,3,3,0,FALSE,FALSE
s1010,113,46,0,0,1,0,1,1,0.676132813,2.1039,3,1,2,FALSE,TRUE
s1010,114,81,0,1,0,1,0,0,0.008481445,3.1048,2,2,0,FALSE,FALSE
s1010,115,74,1,1,0,0,0,1,0.007299805,2.0371,3,3,0,FALSE,FALSE
s1010,116,18,1,0,0,0,1,0,0.007299805,1.6897,2,2,0,FALSE,FALSE
s1010,117,76,1,1,0,0,1,1,0.10800293,3.1023,3,2,1,FALSE,TRUE
s1010,118,82,0,1,0,0,0,0,0.675039063,2.5721,2,1,1,FALSE,TRUE
s1010,119,23,0,0,0,1,0,1,0.012631836,2.0737,2,2,0,FALSE,FALSE
s1010,120,88,0,1,0,0,1,0,0.996542969,2.2378,2,0,2,FALSE,FALSE
s1010,121,66,0,1,1,0,1,1,0.99987793,2.0554,3,0,3,FALSE,FALSE
s1010,122,22,0,0,0,0,0,0,0.99987793,1.2552,1,0,1,FALSE,FALSE
s1010,123,55,1,1,1,1,1,1,0.99987793,1.3214,3,0,3,FALSE,FALSE
s1010,124,37,1,0,1,1,1,0,0.39715332,2.2702,3,2,1,FALSE,TRUE
s1010,125,84,0,1,0,0,0,1,0.447636719,1.9723,3,2,1,FALSE,TRUE
s1010,126,68,0,1,1,0,1,0,0.655375977,2.2696,3,1,2,FALSE,TRUE
s1010,127,28,0,0,0,0,1,0,0.58328125,1.9546,2,1,1,FALSE,TRUE
s1010,128,31,1,0,1,1,0,0,0.585966797,2.0888,2,1,1,FALSE,TRUE
s1011,1,78,1,1,0,0,1,0,0.471666718,5.2309,2,1,1,TRUE,TRUE
s1011,2,21,0,0,0,1,0,0,0.0025,2.4662,1,1,0,TRUE,FALSE
s1011,3,87,0,1,0,1,1,0,0.470833435,2.483,2,1,1,TRUE,TRUE
s1011,4,64,0,1,1,0,0,1,0.6925,3.0678,3,1,2,FALSE,TRUE
s1011,5,12,1,0,0,0,0,0,0.0025,2.632,1,1,0,TRUE,FALSE
s1011,6,35,1,0,1,1,1,1,0.4525,2.6578,3,1,2,FALSE,TRUE
s1011,7,26,0,0,0,0,1,1,0.580833435,2.0645,3,2,1,FALSE,TRUE
s1011,8,84,0,1,0,0,0,1,0.5275,1.8586,3,2,1,FALSE,TRUE
s1011,9,43,0,0,1,1,0,1,0.3325,2.7253,2,1,1,TRUE,TRUE
s1011,10,81,0,1,0,1,0,0,0.0025,2.683,2,2,0,FALSE,FALSE
s1011,11,48,0,0,1,0,1,0,0.3325,2.2068,3,2,1,FALSE,TRUE
s1011,12,46,0,0,1,0,1,1,0.468333435,1.9326,3,1,2,FALSE,TRUE
s1011,13,88,0,1,0,0,1,0,0.995,2.3984,2,0,2,FALSE,FALSE
s1011,14,73,1,1,0,1,0,1,0.4625,2.223,3,2,1,FALSE,TRUE
s1011,15,76,1,1,0,0,1,1,0.000833359,3.2664,3,2,1,FALSE,TRUE
s1011,16,13,1,0,0,1,0,1,0.483333435,1.791,2,1,1,FALSE,TRUE
s1011,17,34,1,0,1,0,0,1,0.3125,2.1563,2,1,1,TRUE,TRUE
s1011,18,62,0,1,1,0,0,0,0.4725,2.4151,3,2,1,FALSE,TRUE
s1011,19,32,1,0,1,0,0,0,0.001666718,2.432,2,2,0,FALSE,FALSE
s1011,20,11,1,0,0,1,0,0,0.995833435,2.2556,1,0,1,FALSE,FALSE
s1011,21,86,0,1,0,0,1,1,0.770833435,2.1914,3,1,2,FALSE,TRUE
s1011,22,65,0,1,1,1,1,1,0.466666718,2.3337,3,1,2,TRUE,TRUE
s1011,23,83,0,1,0,1,0,1,0.003333359,3.9006,3,3,0,FALSE,FALSE
s1011,24,27,0,0,0,1,1,0,0.004166718,2.4167,2,2,0,FALSE,FALSE
s1011,25,36,1,0,1,0,1,1,0.18,3.033,3,2,1,FALSE,TRUE
s1011,26,56,1,1,1,0,1,1,0.493333435,3.6012,3,1,2,TRUE,TRUE
s1011,27,15,1,0,0,1,1,1,0.505833435,2.883,3,2,1,FALSE,TRUE
s1011,28,51,1,1,1,1,0,0,0.5,1.5423,3,2,1,FALSE,TRUE
s1011,29,74,1,1,0,0,0,1,0.000833359,2.7916,3,3,0,FALSE,FALSE
s1011,30,16,1,0,0,0,1,1,0.0025,2.8589,3,3,0,FALSE,FALSE
s1011,31,41,0,0,1,1,0,0,0.0025,2.0422,2,2,0,FALSE,FALSE
s1011,32,77,1,1,0,1,1,0,0.995833435,2.1583,2,0,2,FALSE,FALSE
s1011,33,28,0,0,0,0,1,0,0.5225,2.5581,2,1,1,FALSE,TRUE
s1011,34,23,0,0,0,1,0,1,0.0025,2.1757,2,2,0,FALSE,FALSE
s1011,35,75,1,1,0,1,1,1,0.744166718,3.301,3,1,2,FALSE,TRUE
s1011,36,47,0,0,1,1,1,0,0.004166718,2.6002,3,3,0,FALSE,FALSE
s1011,37,66,0,1,1,0,1,1,0.9975,2.4241,3,0,3,FALSE,FALSE
s1011,38,37,1,0,1,1,1,0,0.5,2.1391,3,2,1,FALSE,TRUE
s1011,39,63,0,1,1,1,0,1,0.300833435,3.2495,3,2,1,FALSE,TRUE
s1011,40,67,0,1,1,1,1,0,0.2375,2.6421,3,2,1,FALSE,TRUE
s1011,41,58,1,1,1,0,1,0,0.2575,2.1341,3,2,1,FALSE,TRUE
s1011,42,52,1,1,1,0,0,0,0.003333359,2.6152,3,3,0,FALSE,FALSE
s1011,43,71,1,1,0,1,0,0,0.505833435,2.4488,2,1,1,FALSE,TRUE
s1011,44,82,0,1,0,0,0,0,0.543333435,1.7413,2,1,1,FALSE,TRUE
s1011,45,22,0,0,0,0,0,0,0.9925,1.8497,1,0,1,FALSE,FALSE
s1011,46,31,1,0,1,1,0,0,0.503333435,1.658,2,1,1,FALSE,TRUE
s1011,47,38,1,0,1,0,1,0,0.000833359,2.6509,3,3,0,FALSE,FALSE
s1011,48,72,1,1,0,0,0,0,0.003333359,2.4662,2,2,0,FALSE,FALSE
s1011,49,54,1,1,1,0,0,1,0.240833435,3.4085,3,2,1,FALSE,TRUE
s1011,50,44,0,0,1,0,0,1,0.995,2.1415,2,0,2,FALSE,FALSE
s1011,51,25,0,0,0,1,1,1,0.003333359,3.0187,3,3,0,FALSE,FALSE
s1011,52,24,0,0,0,0,0,1,0.254166718,2.5566,2,1,1,FALSE,TRUE
s1011,53,68,0,1,1,0,1,0,0.5825,2.1665,3,1,2,FALSE,TRUE
s1011,54,57,1,1,1,1,1,0,0.705833435,1.9247,3,1,2,FALSE,TRUE
s1011,55,42,0,0,1,0,0,0,0.714166718,1.9164,2,1,1,FALSE,TRUE
s1011,56,45,0,0,1,1,1,1,0.275833435,2.2095,3,2,1,FALSE,TRUE
s1011,57,18,1,0,0,0,1,0,0.0025,2.451,2,2,0,FALSE,FALSE
s1011,58,53,1,1,1,1,0,1,0.516666718,1.674,3,1,2,FALSE,TRUE
s1011,59,61,0,1,1,1,0,0,0.0025,2.0006,3,3,0,FALSE,FALSE
s1011,60,17,1,0,0,1,1,0,0.525833435,1.615,2,1,1,FALSE,TRUE
s1011,61,85,0,1,0,1,1,1,0.395,1.9817,3,2,1,FALSE,TRUE
s1011,62,33,1,0,1,1,0,1,0.9975,2.0828,2,0,2,FALSE,FALSE
s1011,63,55,1,1,1,1,1,1,0.995833435,1.7913,3,0,3,FALSE,FALSE
s1011,64,14,1,0,0,0,0,1,0.000833359,11.5545,2,2,0,FALSE,FALSE
s1011,65,11,1,0,0,1,0,0,0.9975,2.4544,1,0,1,FALSE,FALSE
s1011,66,57,1,1,1,1,1,0,0.724166718,1.6316,3,1,2,FALSE,TRUE
s1011,67,31,1,0,1,1,0,0,0.719166718,1.4049,2,1,1,FALSE,TRUE
s1011,68,12,1,0,0,0,0,0,0.000833359,2.5776,1,1,0,TRUE,FALSE
s1011,69,37,1,0,1,1,1,0,0.3625,2.308,3,2,1,FALSE,TRUE
s1011,70,34,1,0,1,0,0,1,0.368333435,1.4343,2,1,1,TRUE,TRUE
s1011,71,83,0,1,0,1,0,1,0.0025,2.081,3,3,0,FALSE,FALSE
s1011,72,75,1,1,0,1,1,1,0.774166718,1.9965,3,1,2,FALSE,TRUE
s1011,73,45,0,0,1,1,1,1,0.174166718,2.0172,3,2,1,FALSE,TRUE
s1011,74,27,0,0,0,1,1,0,0.005,1.8329,2,2,0,FALSE,FALSE
s1011,75,86,0,1,0,0,1,1,0.758333435,1.7359,3,1,2,FALSE,TRUE
s1011,76,47,0,0,1,1,1,0,0.000833359,2.1279,3,3,0,FALSE,FALSE
s1011,77,58,1,1,1,0,1,0,0.1675,3.0009,3,2,1,FALSE,TRUE
s1011,78,42,0,0,1,0,0,0,0.785833435,2.2543,2,1,1,FALSE,TRUE
s1011,79,73,1,1,0,1,0,1,0.625,1.9602,3,2,1,FALSE,TRUE
s1011,80,72,1,1,0,0,0,0,0.009166718,1.9603,2,2,0,FALSE,FALSE
s1011,81,44,0,0,1,0,0,1,0.999166718,1.895,2,0,2,FALSE,FALSE
s1011,82,61,0,1,1,1,0,0,0.000833359,5.4751,3,3,0,FALSE,FALSE
s1011,83,78,1,1,0,0,1,0,0.720833435,1.9112,2,1,1,TRUE,TRUE
s1011,84,32,1,0,1,0,0,0,0.0025,2.7863,2,2,0,FALSE,FALSE
s1011,85,62,0,1,1,0,0,0,0.6775,2.0478,3,2,1,FALSE,TRUE
s1011,86,18,1,0,0,0,1,0,0.004166718,2.547,2,2,0,FALSE,FALSE
s1011,87,82,0,1,0,0,0,0,0.475833435,2.1503,2,1,1,FALSE,TRUE
s1011,88,63,0,1,1,1,0,1,0.203333435,2.5726,3,2,1,FALSE,TRUE
s1011,89,55,1,1,1,1,1,1,0.995833435,2.3678,3,0,3,FALSE,FALSE
s1011,90,21,0,0,0,1,0,0,0.004166718,2.1849,1,1,0,TRUE,FALSE
s1011,91,22,0,0,0,0,0,0,0.996666718,1.964,1,0,1,FALSE,FALSE
s1011,92,71,1,1,0,1,0,0,0.3125,2.2706,2,1,1,FALSE,TRUE
s1011,93,28,0,0,0,0,1,0,0.633333435,2.2129,2,1,1,FALSE,TRUE
s1011,94,53,1,1,1,1,0,1,0.789166718,3.0258,3,1,2,FALSE,TRUE
s1011,95,52,1,1,1,0,0,0,0.005833359,7.4557,3,3,0,FALSE,FALSE
s1011,96,15,1,0,0,1,1,1,0.25,1.9768,3,2,1,FALSE,TRUE
s1011,97,36,1,0,1,0,1,1,0.264166718,2.2828,3,2,1,FALSE,TRUE
s1011,98,24,0,0,0,0,0,1,0.739166718,2.9607,2,1,1,FALSE,TRUE
s1011,99,13,1,0,0,1,0,1,0.763333435,2.7139,2,1,1,FALSE,TRUE
s1011,100,85,0,1,0,1,1,1,0.001666718,2.8069,3,2,1,FALSE,TRUE
s1011,101,46,0,0,1,0,1,1,0.795,1.845,3,1,2,FALSE,TRUE
s1011,102,77,1,1,0,1,1,0,0.995,3.2116,2,0,2,FALSE,FALSE
s1011,103,14,1,0,0,0,0,1,0.000833359,2.645,2,2,0,FALSE,FALSE
s1011,104,56,1,1,1,0,1,1,0.705833435,6.9142,3,1,2,TRUE,TRUE
s1011,105,35,1,0,1,1,1,1,0.729166718,3.1093,3,1,2,FALSE,TRUE
s1011,106,26,0,0,0,0,1,1,0.533333435,2.2981,3,2,1,FALSE,TRUE
s1011,107,84,0,1,0,0,0,1,0.534166718,1.7075,3,2,1,FALSE,TRUE
s1011,108,65,0,1,1,1,1,1,0.596666718,3.2435,3,1,2,TRUE,TRUE
s1011,109,68,0,1,1,0,1,0,0.671666718,1.7185,3,1,2,FALSE,TRUE
s1011,110,66,0,1,1,0,1,1,0.996666718,2.1486,3,0,3,FALSE,FALSE
s1011,111,33,1,0,1,1,0,1,0.995,1.9865,2,0,2,FALSE,FALSE
s1011,112,41,0,0,1,1,0,0,0.000833359,2.7854,2,2,0,FALSE,FALSE
s1011,113,67,0,1,1,1,1,0,0.003333359,2.5482,3,2,1,FALSE,TRUE
s1011,114,16,1,0,0,0,1,1,0.008333359,2.6744,3,3,0,FALSE,FALSE
s1011,115,74,1,1,0,0,0,1,0.0025,2.425,3,3,0,FALSE,FALSE
s1011,116,54,1,1,1,0,0,1,0.009166718,1.766,3,2,1,FALSE,TRUE
s1011,117,23,0,0,0,1,0,1,0.008333359,2.4385,2,2,0,FALSE,FALSE
s1011,118,25,0,0,0,1,1,1,0.0075,2.0763,3,3,0,FALSE,FALSE
s1011,119,64,0,1,1,0,0,1,0.7325,2.4891,3,1,2,FALSE,TRUE
s1011,120,51,1,1,1,1,0,0,0.515,1.9227,3,2,1,FALSE,TRUE
s1011,121,88,0,1,0,0,1,0,0.9925,1.845,2,0,2,FALSE,FALSE
s1011,122,48,0,0,1,0,1,0,0.480833435,2.2688,3,2,1,FALSE,TRUE
s1011,123,17,1,0,0,1,1,0,0.489166718,1.8784,2,1,1,FALSE,TRUE
s1011,124,38,1,0,1,0,1,0,0.005,2.0116,3,3,0,FALSE,FALSE
s1011,125,76,1,1,0,0,1,1,0.006666718,1.8729,3,2,1,FALSE,TRUE
s1011,126,81,0,1,0,1,0,0,0.005,1.9028,2,2,0,FALSE,FALSE
s1011,127,87,0,1,0,1,1,0,0.270833435,2.7577,2,1,1,TRUE,TRUE
s1011,128,43,0,0,1,1,0,1,0.4525,1.5471,2,1,1,TRUE,TRUE
s1012,1,57,1,1,1,1,1,0,0.809000015,8.4192,3,1,2,FALSE,TRUE
s1012,2,76,1,1,0,0,1,1,0.424000015,7.354,3,2,1,FALSE,TRUE
s1012,3,83,0,1,0,1,0,1,0.005,3.9284,3,3,0,FALSE,FALSE
s1012,4,77,1,1,0,1,1,0,0.998000031,3.0883,2,0,2,FALSE,FALSE
s1012,5,58,1,1,1,0,1,0,0.273000031,5.1799,3,2,1,FALSE,TRUE
s1012,6,72,1,1,0,0,0,0,0.004000015,4.314,2,2,0,FALSE,FALSE
s1012,7,16,1,0,0,0,1,1,0.007999992,3.5825,3,3,0,FALSE,FALSE
s1012,8,66,0,1,1,0,1,1,0.998000031,2.6924,3,0,3,FALSE,FALSE
s1012,9,11,1,0,0,1,0,0,0.996999969,2.3212,1,0,1,FALSE,FALSE
s1012,10,78,1,1,0,0,1,0,0.492000046,5.4864,2,1,1,TRUE,TRUE
s1012,11,47,0,0,1,1,1,0,0.004000015,3.0953,3,3,0,FALSE,FALSE
s1012,12,26,0,0,0,0,1,1,0.365,4.8747,3,2,1,FALSE,TRUE
s1012,13,56,1,1,1,0,1,1,0.612000046,5.5102,3,1,2,TRUE,TRUE
s1012,14,42,0,0,1,0,0,0,0.505,3.3301,2,1,1,FALSE,TRUE
s1012,15,31,1,0,1,1,0,0,0.5,2.5486,2,1,1,FALSE,TRUE
s1012,16,62,0,1,1,0,0,0,0.305,4.1199,3,2,1,FALSE,TRUE
s1012,17,81,0,1,0,1,0,0,0.004000015,3.2707,2,2,0,FALSE,FALSE
s1012,18,74,1,1,0,0,0,1,0.005,2.8615,3,3,0,FALSE,FALSE
s1012,19,53,1,1,1,1,0,1,0.580999985,7.4123,3,1,2,FALSE,TRUE
s1012,20,54,1,1,1,0,0,1,0.225,4.9244,3,2,1,FALSE,TRUE
s1012,21,63,0,1,1,1,0,1,0.183000031,14.317,3,2,1,FALSE,TRUE
s1012,22,23,0,0,0,1,0,1,0.004000015,4.3729,2,2,0,FALSE,FALSE
s1012,23,75,1,1,0,1,1,1,0.628000031,3.1148,3,1,2,FALSE,TRUE
s1012,24,25,0,0,0,1,1,1,0.006000023,4.2773,3,3,0,FALSE,FALSE
s1012,25,38,1,0,1,0,1,0,0.001000023,3.702,3,3,0,FALSE,FALSE
s1012,26,37,1,0,1,1,1,0,0.357000046,4.5334,3,2,1,FALSE,TRUE
s1012,27,14,1,0,0,0,0,1,0.005,3.5494,2,2,0,FALSE,FALSE
s1012,28,21,0,0,0,1,0,0,0.007000008,2.7953,1,1,0,TRUE,FALSE
s1012,29,87,0,1,0,1,1,0,0.464000015,7.9826,2,1,1,TRUE,TRUE
s1012,30,35,1,0,1,1,1,1,0.563000031,4.4266,3,1,2,FALSE,TRUE
s1012,31,88,0,1,0,0,1,0,0.995,2.7144,2,0,2,FALSE,FALSE
s1012,32,55,1,1,1,1,1,1,0.996999969,3.0936,3,0,3,FALSE,FALSE
s1012,33,43,0,0,1,1,0,1,0.474000015,4.9938,2,1,1,TRUE,TRUE
s1012,34,36,1,0,1,0,1,1,0.260999985,4.5179,3,2,1,FALSE,TRUE
s1012,35,82,0,1,0,0,0,0,0.374000015,5.1157,2,1,1,FALSE,TRUE
s1012,36,85,0,1,0,1,1,1,0.220999985,5.2769,3,2,1,FALSE,TRUE
s1012,37,48,0,0,1,0,1,0,0.280999985,6.1075,3,2,1,FALSE,TRUE
s1012,38,13,1,0,0,1,0,1,0.464000015,3.4781,2,1,1,FALSE,TRUE
s1012,39,22,0,0,0,0,0,0,0.998000031,2.6235,1,0,1,FALSE,FALSE
s1012,40,68,0,1,1,0,1,0,0.690999985,3.7139,3,1,2,FALSE,TRUE
s1012,41,71,1,1,0,1,0,0,0.494000015,2.6017,2,1,1,FALSE,TRUE
s1012,42,46,0,0,1,0,1,1,0.624000015,4.6536,3,1,2,FALSE,TRUE
s1012,43,33,1,0,1,1,0,1,0.996999969,2.7026,2,0,2,FALSE,FALSE
s1012,44,24,0,0,0,0,0,1,0.493000031,4.7761,2,1,1,FALSE,TRUE
s1012,45,17,1,0,0,1,1,0,0.493000031,3.781,2,1,1,FALSE,TRUE
s1012,46,41,0,0,1,1,0,0,0.005,3.3376,2,2,0,FALSE,FALSE
s1012,47,84,0,1,0,0,0,1,0.329000015,4.5579,3,2,1,FALSE,TRUE
s1012,48,15,1,0,0,1,1,1,0.247000046,3.8294,3,2,1,FALSE,TRUE
s1012,49,27,0,0,0,1,1,0,0.007000008,11.118,2,2,0,FALSE,FALSE
s1012,50,65,0,1,1,1,1,1,0.578000031,7.1193,3,1,2,TRUE,TRUE
s1012,51,18,1,0,0,0,1,0,0.002000008,2.5936,2,2,0,FALSE,FALSE
s1012,52,44,0,0,1,0,0,1,0.994000092,2.4976,2,0,2,FALSE,FALSE
s1012,53,61,0,1,1,1,0,0,0.001000023,3.7908,3,3,0,FALSE,FALSE
s1012,54,28,0,0,0,0,1,0,0.482000046,3.0959,2,1,1,FALSE,TRUE
s1012,55,52,1,1,1,0,0,0,0.006000023,3.256,3,3,0,FALSE,FALSE
s1012,56,12,1,0,0,0,0,0,0.005,2.5148,1,1,0,TRUE,FALSE
s1012,57,86,0,1,0,0,1,1,0.638000031,3.5286,3,1,2,FALSE,TRUE
s1012,58,51,1,1,1,1,0,0,0.119000015,5.2603,3,2,1,FALSE,TRUE
s1012,59,67,0,1,1,1,1,0,0.147999992,7.8749,3,2,1,FALSE,TRUE
s1012,60,32,1,0,1,0,0,0,0.004000015,4.7395,2,2,0,FALSE,FALSE
s1012,61,34,1,0,1,0,0,1,0.493000031,3.7486,2,1,1,TRUE,TRUE
s1012,62,73,1,1,0,1,0,1,0.332000046,4.075,3,2,1,FALSE,TRUE
s1012,63,64,0,1,1,0,0,1,0.555,5.4946,3,1,2,FALSE,TRUE
s1012,64,45,0,0,1,1,1,1,0.137000008,6.2657,3,2,1,FALSE,TRUE
s1012,65,23,0,0,0,1,0,1,0.006000023,2.7565,2,2,0,FALSE,FALSE
s1012,66,78,1,1,0,0,1,0,0.392000046,5.1272,2,1,1,TRUE,TRUE
s1012,67,34,1,0,1,0,0,1,0.48,6.4515,2,1,1,TRUE,TRUE
s1012,68,33,1,0,1,1,0,1,0.994000092,2.2548,2,0,2,FALSE,FALSE
s1012,69,52,1,1,1,0,0,0,0.01,4.2612,3,3,0,FALSE,FALSE
s1012,70,81,0,1,0,1,0,0,0.005,3.9467,2,2,0,FALSE,FALSE
s1012,71,14,1,0,0,0,0,1,0.005,2.9715,2,2,0,FALSE,FALSE
s1012,72,17,1,0,0,1,1,0,0.518000031,3.5817,2,1,1,FALSE,TRUE
s1012,73,38,1,0,1,0,1,0,0.007000008,6.9101,3,3,0,FALSE,FALSE
s1012,74,32,1,0,1,0,0,0,0.002000008,3.2074,2,2,0,FALSE,FALSE
s1012,75,63,0,1,1,1,0,1,0.122000008,3.0973,3,2,1,FALSE,TRUE
s1012,76,66,0,1,1,0,1,1,0.991999969,3.4136,3,0,3,FALSE,FALSE
s1012,77,44,0,0,1,0,0,1,0.995,2.2484,2,0,2,FALSE,FALSE
s1012,78,62,0,1,1,0,0,0,0.235,4.9545,3,2,1,FALSE,TRUE
s1012,79,16,1,0,0,0,1,1,0.005,3.3217,3,3,0,FALSE,FALSE
s1012,80,75,1,1,0,1,1,1,0.660999985,2.9945,3,1,2,FALSE,TRUE
s1012,81,84,0,1,0,0,0,1,0.423000031,4.7198,3,2,1,FALSE,TRUE
s1012,82,58,1,1,1,0,1,0,0.650999985,3.3994,3,2,1,FALSE,TRUE
s1012,83,43,0,0,1,1,0,1,0.332000046,4.4298,2,1,1,TRUE,TRUE
s1012,84,82,0,1,0,0,0,0,0.49,3.4304,2,1,1,FALSE,TRUE
s1012,85,77,1,1,0,1,1,0,0.999000092,2.7986,2,0,2,FALSE,FALSE
s1012,86,12,1,0,0,0,0,0,0.005,3.0924,1,1,0,TRUE,FALSE
s1012,87,13,1,0,0,1,0,1,0.51,5.0019,2,1,1,FALSE,TRUE
s1012,88,61,0,1,1,1,0,0,0.006000023,3.4797,3,3,0,FALSE,FALSE
s1012,89,65,0,1,1,1,1,1,0.513000031,4.8432,3,1,2,TRUE,TRUE
s1012,90,47,0,0,1,1,1,0,0.004000015,6.7411,3,3,0,FALSE,FALSE
s1012,91,85,0,1,0,1,1,1,0.185999985,5.5255,3,2,1,FALSE,TRUE
s1012,92,25,0,0,0,1,1,1,0.007999992,4.3426,3,3,0,FALSE,FALSE
s1012,93,15,1,0,0,1,1,1,0.195999985,4.8739,3,2,1,FALSE,TRUE
s1012,94,48,0,0,1,0,1,0,0.255,5.9837,3,2,1,FALSE,TRUE
s1012,95,64,0,1,1,0,0,1,0.587000046,3.7788,3,1,2,FALSE,TRUE
s1012,96,68,0,1,1,0,1,0,0.619000015,2.6785,3,1,2,FALSE,TRUE
s1012,97,71,1,1,0,1,0,0,0.494000015,4.2798,2,1,1,FALSE,TRUE
s1012,98,22,0,0,0,0,0,0,0.998000031,2.9849,1,0,1,FALSE,FALSE
s1012,99,27,0,0,0,1,1,0,0.006000023,3.0509,2,2,0,FALSE,FALSE
s1012,100,74,1,1,0,0,0,1,0.002999992,5.5249,3,3,0,FALSE,FALSE
s1012,101,18,1,0,0,0,1,0,0.002999992,2.7184,2,2,0,FALSE,FALSE
s1012,102,67,0,1,1,1,1,0,0.169000015,5.062,3,2,1,FALSE,TRUE
s1012,103,11,1,0,0,1,0,0,0.999000092,3.1693,1,0,1,FALSE,FALSE
s1012,104,57,1,1,1,1,1,0,0.725,2.9753,3,1,2,FALSE,TRUE
s1012,105,83,0,1,0,1,0,1,0.017000008,4.127,3,3,0,FALSE,FALSE
s1012,106,53,1,1,1,1,0,1,0.688000031,2.3696,3,1,2,FALSE,TRUE
s1012,107,36,1,0,1,0,1,1,0.156000023,3.7342,3,2,1,FALSE,TRUE
s1012,108,35,1,0,1,1,1,1,0.654000015,3.6622,3,1,2,FALSE,TRUE
s1012,109,86,0,1,0,0,1,1,0.708000031,3.3617,3,1,2,FALSE,TRUE
s1012,110,55,1,1,1,1,1,1,0.996000061,2.4618,3,0,3,FALSE,FALSE
s1012,111,87,0,1,0,1,1,0,0.395999985,4.7613,2,1,1,TRUE,TRUE
s1012,112,73,1,1,0,1,0,1,0.365,5.0524,3,2,1,FALSE,TRUE
s1012,113,41,0,0,1,1,0,0,0.005,6.1265,2,2,0,FALSE,FALSE
s1012,114,24,0,0,0,0,0,1,0.508000031,2.488,2,1,1,FALSE,TRUE
s1012,115,45,0,0,1,1,1,1,0.162999992,4.2552,3,2,1,FALSE,TRUE
s1012,116,56,1,1,1,0,1,1,0.475999985,4.0885,3,1,2,TRUE,TRUE
s1012,117,72,1,1,0,0,0,0,0.007000008,3.2634,2,2,0,FALSE,FALSE
s1012,118,54,1,1,1,0,0,1,0.101000023,3.3861,3,2,1,FALSE,TRUE
s1012,119,26,0,0,0,0,1,1,0.13,4.4599,3,2,1,FALSE,TRUE
s1012,120,51,1,1,1,1,0,0,0.137000008,6.9122,3,2,1,FALSE,TRUE
s1012,121,46,0,0,1,0,1,1,0.612000046,3.9272,3,1,2,FALSE,TRUE
s1012,122,42,0,0,1,0,0,0,0.488000031,2.4882,2,1,1,FALSE,TRUE
s1012,123,88,0,1,0,0,1,0,0.991999969,2.562,2,0,2,FALSE,FALSE
s1012,124,28,0,0,0,0,1,0,0.484000015,3.9435,2,1,1,FALSE,TRUE
s1012,125,76,1,1,0,0,1,1,0.13,5.657,3,2,1,FALSE,TRUE
s1012,126,37,1,0,1,1,1,0,0.312000046,4.6289,3,2,1,FALSE,TRUE
s1012,127,31,1,0,1,1,0,0,0.505999985,2.3135,2,1,1,FALSE,TRUE
s1012,128,21,0,0,0,1,0,0,0.009000015,2.4775,1,1,0,TRUE,FALSE
s1013,1,51,1,1,1,1,0,0,0.63625,8.5216,3,2,1,FALSE,TRUE
s1013,2,65,0,1,1,1,1,1,0.69375,4.6599,3,1,2,TRUE,TRUE
s1013,3,57,1,1,1,1,1,0,0.765,5.0728,3,1,2,FALSE,TRUE
s1013,4,36,1,0,1,0,1,1,0.44375,6.0808,3,2,1,FALSE,TRUE
s1013,5,76,1,1,0,0,1,1,0.3675,3.9152,3,2,1,FALSE,TRUE
s1013,6,31,1,0,1,1,0,0,0.73125,2.2023,2,1,1,FALSE,TRUE
s1013,7,24,0,0,0,0,0,1,0.76375,1.9983,2,1,1,FALSE,TRUE
s1013,8,68,0,1,1,0,1,0,0.8025,2.4226,3,1,2,FALSE,TRUE
s1013,9,74,1,1,0,0,0,1,0.37625,2.5517,3,3,0,FALSE,FALSE
s1013,10,46,0,0,1,0,1,1,0.60125,2.9407,3,1,2,FALSE,TRUE
s1013,11,15,1,0,0,1,1,1,0.5375,2.0097,3,2,1,FALSE,TRUE
s1013,12,22,0,0,0,0,0,0,0.9675,2.0301,1,0,1,FALSE,FALSE
s1013,13,42,0,0,1,0,0,0,0.85,1.8767,2,1,1,FALSE,TRUE
s1013,14,25,0,0,0,1,1,1,0.105,3.4614,3,3,0,FALSE,FALSE
s1013,15,62,0,1,1,0,0,0,0.34625,4.7638,3,2,1,FALSE,TRUE
s1013,16,75,1,1,0,1,1,1,0.655,2.406,3,1,2,FALSE,TRUE
s1013,17,27,0,0,0,1,1,0,0.0625,5.698,2,2,0,FALSE,FALSE
s1013,18,47,0,0,1,1,1,0,0.02625,5.7962,3,3,0,FALSE,FALSE
s1013,19,18,1,0,0,0,1,0,0.02,3.4637,2,2,0,FALSE,FALSE
s1013,20,81,0,1,0,1,0,0,0.0325,3.5682,2,2,0,FALSE,FALSE
s1013,21,71,1,1,0,1,0,0,0.40625,2.9896,2,1,1,FALSE,TRUE
s1013,22,17,1,0,0,1,1,0,0.50375,2.3489,2,1,1,FALSE,TRUE
s1013,23,16,1,0,0,0,1,1,0.065,5.4334,3,3,0,FALSE,FALSE
s1013,24,61,0,1,1,1,0,0,0.09,1.7094,3,3,0,FALSE,FALSE
s1013,25,87,0,1,0,1,1,0,0.35,2.3538,2,1,1,TRUE,TRUE
s1013,26,13,1,0,0,1,0,1,0.54375,1.9218,2,1,1,FALSE,TRUE
s1013,27,44,0,0,1,0,0,1,0.9625,2.3972,2,0,2,FALSE,FALSE
s1013,28,54,1,1,1,0,0,1,0.33375,83.889,3,2,1,FALSE,TRUE
s1013,29,86,0,1,0,0,1,1,0.61625,2.3204,3,1,2,FALSE,TRUE
s1013,30,72,1,1,0,0,0,0,0.09375,3.2486,2,2,0,FALSE,FALSE
s1013,31,14,1,0,0,0,0,1,0.0725,1.7104,2,2,0,FALSE,FALSE
s1013,32,85,0,1,0,1,1,1,0.45875,5.1197,3,2,1,FALSE,TRUE
s1013,33,78,1,1,0,0,1,0,0.335,2.5287,2,1,1,TRUE,TRUE
s1013,34,26,0,0,0,0,1,1,0.475,2.5146,3,2,1,FALSE,TRUE
s1013,35,41,0,0,1,1,0,0,0.1275,6.2941,2,2,0,FALSE,FALSE
s1013,36,34,1,0,1,0,0,1,0.275,11.7003,2,1,1,TRUE,TRUE
s1013,37,37,1,0,1,1,1,0,0.37625,13.3982,3,2,1,FALSE,TRUE
s1013,38,23,0,0,0,1,0,1,0.32625,10.1783,2,2,0,FALSE,FALSE
s1013,39,56,1,1,1,0,1,1,0.47,2.8077,3,1,2,TRUE,TRUE
s1013,40,52,1,1,1,0,0,0,0.08125,4.2566,3,3,0,FALSE,FALSE
s1013,41,73,1,1,0,1,0,1,0.39875,11.5627,3,2,1,FALSE,TRUE
s1013,42,12,1,0,0,0,0,0,0.0325,3.2958,1,1,0,TRUE,FALSE
s1013,43,83,0,1,0,1,0,1,0.07625,3.3762,3,3,0,FALSE,FALSE
s1013,44,11,1,0,0,1,0,0,0.9775,2.2861,1,0,1,FALSE,FALSE
s1013,45,66,0,1,1,0,1,1,0.98375,2.2124,3,0,3,FALSE,FALSE
s1013,46,43,0,0,1,1,0,1,0.58875,2.5086,2,1,1,TRUE,TRUE
s1013,47,84,0,1,0,0,0,1,0.50625,2.0285,3,2,1,FALSE,TRUE
s1013,48,45,0,0,1,1,1,1,0.40375,7.1027,3,2,1,FALSE,TRUE
s1013,49,21,0,0,0,1,0,0,0.04125,2.2574,1,1,0,TRUE,FALSE
s1013,50,67,0,1,1,1,1,0,0.0775,3.0987,3,2,1,FALSE,TRUE
s1013,51,63,0,1,1,1,0,1,0.215,4.0762,3,2,1,FALSE,TRUE
s1013,52,53,1,1,1,1,0,1,0.27125,2.1138,3,1,2,FALSE,TRUE
s1013,53,48,0,0,1,0,1,0,0.3275,2.7714,3,2,1,FALSE,TRUE
s1013,54,28,0,0,0,0,1,0,0.46625,3.0009,2,1,1,FALSE,TRUE
s1013,55,38,1,0,1,0,1,0,0.23,5.3464,3,3,0,FALSE,FALSE
s1013,56,35,1,0,1,1,1,1,0.60375,8.296,3,1,2,FALSE,TRUE
s1013,57,32,1,0,1,0,0,0,0.0775,2.5638,2,2,0,FALSE,FALSE
s1013,58,33,1,0,1,1,0,1,0.95,2.8432,2,0,2,FALSE,FALSE
s1013,59,82,0,1,0,0,0,0,0.5875,2.3852,2,1,1,FALSE,TRUE
s1013,60,55,1,1,1,1,1,1,0.9925,2.5007,3,0,3,FALSE,FALSE
s1013,61,77,1,1,0,1,1,0,0.9975,1.6185,2,0,2,FALSE,FALSE
s1013,62,88,0,1,0,0,1,0,0.99875,1.5129,2,0,2,FALSE,FALSE
s1013,63,64,0,1,1,0,0,1,0.68625,1.7706,3,1,2,FALSE,TRUE
s1013,64,58,1,1,1,0,1,0,0.6225,2.2307,3,2,1,FALSE,TRUE
s1013,65,64,0,1,1,0,0,1,0.7975,1.9984,3,1,2,FALSE,TRUE
s1013,66,11,1,0,0,1,0,0,0.99375,1.6797,1,0,1,FALSE,FALSE
s1013,67,55,1,1,1,1,1,1,0.9825,1.6827,3,0,3,FALSE,FALSE
s1013,68,52,1,1,1,0,0,0,0.0125,2.6685,3,3,0,FALSE,FALSE
s1013,69,12,1,0,0,0,0,0,0.01625,2.3127,1,1,0,TRUE,FALSE
s1013,70,46,0,0,1,0,1,1,0.6625,2.9098,3,1,2,FALSE,TRUE
s1013,71,35,1,0,1,1,1,1,0.73875,1.8146,3,1,2,FALSE,TRUE
s1013,72,28,0,0,0,0,1,0,0.10375,2.1059,2,1,1,FALSE,TRUE
s1013,73,18,1,0,0,0,1,0,0.05125,2.4103,2,2,0,FALSE,FALSE
s1013,74,86,0,1,0,0,1,1,0.6175,2.7588,3,1,2,FALSE,TRUE
s1013,75,17,1,0,0,1,1,0,0.56625,10.1044,2,1,1,FALSE,TRUE
s1013,76,82,0,1,0,0,0,0,0.63375,2.5635,2,1,1,FALSE,TRUE
s1013,77,43,0,0,1,1,0,1,0.55875,2.4694,2,1,1,TRUE,TRUE
s1013,78,34,1,0,1,0,0,1,0.555,52.0345,2,1,1,TRUE,TRUE
s1013,79,33,1,0,1,1,0,1,0.975,2.0945,2,0,2,FALSE,FALSE
s1013,80,71,1,1,0,1,0,0,0.66125,2.2651,2,1,1,FALSE,TRUE
s1013,81,87,0,1,0,1,1,0,0.6475,2.1454,2,1,1,TRUE,TRUE
s1013,82,31,1,0,1,1,0,0,0.605,1.5645,2,1,1,FALSE,TRUE
s1013,83,75,1,1,0,1,1,1,0.77,4.0744,3,1,2,FALSE,TRUE
s1013,84,44,0,0,1,0,0,1,0.96375,3.8444,2,0,2,FALSE,FALSE
s1013,85,81,0,1,0,1,0,0,0.03875,6.8786,2,2,0,FALSE,FALSE
s1013,86,27,0,0,0,1,1,0,0.49625,5.5893,2,2,0,FALSE,FALSE
s1013,87,42,0,0,1,0,0,0,0.6475,1.7839,2,1,1,FALSE,TRUE
s1013,88,15,1,0,0,1,1,1,0.72375,1.5049,3,2,1,FALSE,TRUE
s1013,89,24,0,0,0,0,0,1,0.725,1.7395,2,1,1,FALSE,TRUE
s1013,90,45,0,0,1,1,1,1,0.24875,3.0128,3,2,1,FALSE,TRUE
s1013,91,41,0,0,1,1,0,0,0.06375,2.716,2,2,0,FALSE,FALSE
s1013,92,16,1,0,0,0,1,1,0.20125,7.4845,3,3,0,FALSE,FALSE
s1013,93,48,0,0,1,0,1,0,0.49625,1.7574,3,2,1,FALSE,TRUE
s1013,94,61,0,1,1,1,0,0,0.06625,3.5086,3,3,0,FALSE,FALSE
s1013,95,83,0,1,0,1,0,1,0.07625,2.1511,3,3,0,FALSE,FALSE
s1013,96,58,1,1,1,0,1,0,0.21125,3.3699,3,2,1,FALSE,TRUE
s1013,97,36,1,0,1,0,1,1,0.2375,15.34,3,2,1,FALSE,TRUE
s1013,98,77,1,1,0,1,1,0,0.9625,4.3207,2,0,2,FALSE,FALSE
s1013,99,67,0,1,1,1,1,0,0.5375,6.1615,3,2,1,FALSE,TRUE
s1013,100,62,0,1,1,0,0,0,0.5375,2.4141,3,2,1,FALSE,TRUE
s1013,101,25,0,0,0,1,1,1,0.33125,1.7978,3,3,0,FALSE,FALSE
s1013,102,73,1,1,0,1,0,1,0.5575,4.4408,3,2,1,FALSE,TRUE
s1013,103,56,1,1,1,0,1,1,0.4725,3.0733,3,1,2,TRUE,TRUE
s1013,104,68,0,1,1,0,1,0,0.5,1.6639,3,1,2,FALSE,TRUE
s1013,105,66,0,1,1,0,1,1,0.97375,2.222,3,0,3,FALSE,FALSE
s1013,106,13,1,0,0,1,0,1,0.73875,1.7872,2,1,1,FALSE,TRUE
s1013,107,78,1,1,0,0,1,0,0.70125,2.1645,2,1,1,TRUE,TRUE
s1013,108,57,1,1,1,1,1,0,0.77375,2.2557,3,1,2,FALSE,TRUE
s1013,109,53,1,1,1,1,0,1,0.6375,2.1275,3,1,2,FALSE,TRUE
s1013,110,14,1,0,0,0,0,1,0.01,2.4443,2,2,0,FALSE,FALSE
s1013,111,76,1,1,0,0,1,1,0.08375,6.28,3,2,1,FALSE,TRUE
s1013,112,88,0,1,0,0,1,0,0.19,1.3782,2,0,2,FALSE,FALSE
s1013,113,54,1,1,1,0,0,1,0.39125,5.8742,3,2,1,FALSE,TRUE
s1013,114,74,1,1,0,0,0,1,0.03875,2.4059,3,3,0,FALSE,FALSE
s1013,115,84,0,1,0,0,0,1,0.47,2.4301,3,2,1,FALSE,TRUE
s1013,116,26,0,0,0,0,1,1,0.3575,2.836,3,2,1,FALSE,TRUE
s1013,117,63,0,1,1,1,0,1,0.43625,2.5358,3,2,1,FALSE,TRUE
s1013,118,85,0,1,0,1,1,1,0.2875,3.4586,3,2,1,FALSE,TRUE
s1013,119,23,0,0,0,1,0,1,0.04,2.4269,2,2,0,FALSE,FALSE
s1013,120,51,1,1,1,1,0,0,0.17,7.7323,3,2,1,FALSE,TRUE
s1013,121,65,0,1,1,1,1,1,0.5825,41.446,3,1,2,TRUE,TRUE
s1013,122,22,0,0,0,0,0,0,0.96875,3.4813,1,0,1,FALSE,FALSE
s1013,123,72,1,1,0,0,0,0,0.0675,36.6054,2,2,0,FALSE,FALSE
s1013,124,38,1,0,1,0,1,0,0.07375,2.3948,3,3,0,FALSE,FALSE
s1013,125,37,1,0,1,1,1,0,0.57875,3.4885,3,2,1,FALSE,TRUE
s1013,126,47,0,0,1,1,1,0,0.1725,1.8278,3,3,0,FALSE,FALSE
s1013,127,21,0,0,0,1,0,0,0.03125,2.0251,1,1,0,TRUE,FALSE
s1013,128,32,1,0,1,0,0,0,0.065,1.9488,2,2,0,FALSE,FALSE
s1014,1,11,1,0,0,1,0,0,0.99125,4.0641,1,0,1,FALSE,FALSE
s1014,2,57,1,1,1,1,1,0,0.82375,3.4273,3,1,2,FALSE,TRUE
s1014,3,41,0,0,1,1,0,0,0.785,1.1673,2,2,0,FALSE,FALSE
s1014,4,53,1,1,1,1,0,1,0.82125,3.8404,3,1,2,FALSE,TRUE
s1014,5,81,0,1,0,1,0,0,0.1575,4.0978,2,2,0,FALSE,FALSE
s1014,6,82,0,1,0,0,0,0,0.695,2.9431,2,1,1,FALSE,TRUE
s1014,7,26,0,0,0,0,1,1,0.71125,3.6675,3,2,1,FALSE,TRUE
s1014,8,18,1,0,0,0,1,0,0.0625,2.7082,2,2,0,FALSE,FALSE
s1014,9,31,1,0,1,1,0,0,0.83125,2.4242,2,1,1,FALSE,TRUE
s1014,10,37,1,0,1,1,1,0,0.71875,3.1346,3,2,1,FALSE,TRUE
s1014,11,74,1,1,0,0,0,1,0.01375,3.2648,3,3,0,FALSE,FALSE
s1014,12,87,0,1,0,1,1,0,0.63375,3.7499,2,1,1,TRUE,TRUE
s1014,13,22,0,0,0,0,0,0,0.995,2.2228,1,0,1,FALSE,FALSE
s1014,14,48,0,0,1,0,1,0,0.78875,2.2598,3,2,1,FALSE,TRUE
s1014,15,54,1,1,1,0,0,1,0.4825,5.6202,3,2,1,FALSE,TRUE
s1014,16,71,1,1,0,1,0,0,0.7675,2.3757,2,1,1,FALSE,TRUE
s1014,17,12,1,0,0,0,0,0,0.09375,3.4152,1,1,0,TRUE,FALSE
s1014,18,76,1,1,0,0,1,1,0.3325,4.0794,3,2,1,FALSE,TRUE
s1014,19,72,1,1,0,0,0,0,0.055,2.834,2,2,0,FALSE,FALSE
s1014,20,25,0,0,0,1,1,1,0.005,2.8517,3,3,0,FALSE,FALSE
s1014,21,33,1,0,1,1,0,1,0.99625,2.1642,2,0,2,FALSE,FALSE
s1014,22,86,0,1,0,0,1,1,0.88,3.1271,3,1,2,FALSE,TRUE
s1014,23,61,0,1,1,1,0,0,0.01,2.9047,3,3,0,FALSE,FALSE
s1014,24,16,1,0,0,0,1,1,0.01625,3.1604,3,3,0,FALSE,FALSE
s1014,25,45,0,0,1,1,1,1,0.34,3.1434,3,2,1,FALSE,TRUE
s1014,26,55,1,1,1,1,1,1,0.99625,2.565,3,0,3,FALSE,FALSE
s1014,27,17,1,0,0,1,1,0,0.80625,3.1622,2,1,1,FALSE,TRUE
s1014,28,14,1,0,0,0,0,1,0.10625,2.5792,2,2,0,FALSE,FALSE
s1014,29,78,1,1,0,0,1,0,0.63125,3.6683,2,1,1,TRUE,TRUE
s1014,30,38,1,0,1,0,1,0,0.0875,3.4795,3,3,0,FALSE,FALSE
s1014,31,62,0,1,1,0,0,0,0.485,3.4197,3,2,1,FALSE,TRUE
s1014,32,35,1,0,1,1,1,1,0.4975,2.5283,3,1,2,FALSE,TRUE
s1014,33,63,0,1,1,1,0,1,0.43875,2.9274,3,2,1,FALSE,TRUE
s1014,34,23,0,0,0,1,0,1,0.1775,2.0493,2,2,0,FALSE,FALSE
s1014,35,34,1,0,1,0,0,1,0.47125,3.4164,2,1,1,TRUE,TRUE
s1014,36,47,0,0,1,1,1,0,0.2725,2.6431,3,3,0,FALSE,FALSE
s1014,37,52,1,1,1,0,0,0,0.01375,2.7239,3,3,0,FALSE,FALSE
s1014,38,32,1,0,1,0,0,0,0.05375,2.3233,2,2,0,FALSE,FALSE
s1014,39,66,0,1,1,0,1,1,0.99625,1.8549,3,0,3,FALSE,FALSE
s1014,40,13,1,0,0,1,0,1,0.815,2.5909,2,1,1,FALSE,TRUE
s1014,41,77,1,1,0,1,1,0,0.9975,1.9626,2,0,2,FALSE,FALSE
s1014,42,24,0,0,0,0,0,1,0.815,1.9728,2,1,1,FALSE,TRUE
s1014,43,83,0,1,0,1,0,1,0.14125,2.6048,3,3,0,FALSE,FALSE
s1014,44,36,1,0,1,0,1,1,0.33625,2.8725,3,2,1,FALSE,TRUE
s1014,45,44,0,0,1,0,0,1,0.99625,1.881,2,0,2,FALSE,FALSE
s1014,46,28,0,0,0,0,1,0,0.8,1.9868,2,1,1,FALSE,TRUE
s1014,47,51,1,1,1,1,0,0,0.61375,2.398,3,2,1,FALSE,TRUE
s1014,48,85,0,1,0,1,1,1,0.445,3.2551,3,2,1,FALSE,TRUE
s1014,49,75,1,1,0,1,1,1,0.84625,3.1919,3,1,2,FALSE,TRUE
s1014,50,84,0,1,0,0,0,1,0.74875,2.0757,3,2,1,FALSE,TRUE
s1014,51,65,0,1,1,1,1,1,0.82,2.6009,3,1,2,TRUE,TRUE
s1014,52,43,0,0,1,1,0,1,0.53125,3.0145,2,1,1,TRUE,TRUE
s1014,53,27,0,0,0,1,1,0,0.13125,2.4341,2,2,0,FALSE,FALSE
s1014,54,46,0,0,1,0,1,1,0.825,3.0009,3,1,2,FALSE,TRUE
s1014,55,56,1,1,1,0,1,1,0.805,3.4256,3,1,2,TRUE,TRUE
s1014,56,88,0,1,0,0,1,0,0.9975,1.8249,2,0,2,FALSE,FALSE
s1014,57,58,1,1,1,0,1,0,0.3775,3.5284,3,2,1,FALSE,TRUE
s1014,58,68,0,1,1,0,1,0,0.84125,2.713,3,1,2,FALSE,TRUE
s1014,59,42,0,0,1,0,0,0,0.765,2.258,2,1,1,FALSE,TRUE
s1014,60,15,1,0,0,1,1,1,0.5225,3.4218,3,2,1,FALSE,TRUE
s1014,61,64,0,1,1,0,0,1,0.85375,2.7068,3,1,2,FALSE,TRUE
s1014,62,73,1,1,0,1,0,1,0.72875,2.871,3,2,1,FALSE,TRUE
s1014,63,21,0,0,0,1,0,0,0.17125,2.7305,1,1,0,TRUE,FALSE
s1014,64,67,0,1,1,1,1,0,0.22375,3.9141,3,2,1,FALSE,TRUE
s1014,65,83,0,1,0,1,0,1,0.02875,2.5667,3,3,0,FALSE,FALSE
s1014,66,45,0,0,1,1,1,1,0.355,2.3718,3,2,1,FALSE,TRUE
s1014,67,23,0,0,0,1,0,1,0.09625,2.5469,2,2,0,FALSE,FALSE
s1014,68,27,0,0,0,1,1,0,0.02375,2.8517,2,2,0,FALSE,FALSE
s1014,69,46,0,0,1,0,1,1,0.8425,2.4437,3,1,2,FALSE,TRUE
s1014,70,78,1,1,0,0,1,0,0.50375,2.8549,2,1,1,TRUE,TRUE
s1014,71,28,0,0,0,0,1,0,0.70375,2.6645,2,1,1,FALSE,TRUE
s1014,72,66,0,1,1,0,1,1,0.99625,2.2824,3,0,3,FALSE,FALSE
s1014,73,51,1,1,1,1,0,0,0.605,2.2296,3,2,1,FALSE,TRUE
s1014,74,58,1,1,1,0,1,0,0.39625,2.3316,3,2,1,FALSE,TRUE
s1014,75,34,1,0,1,0,0,1,0.355,2.9779,2,1,1,TRUE,TRUE
s1014,76,31,1,0,1,1,0,0,0.65125,2.118,2,1,1,FALSE,TRUE
s1014,77,48,0,0,1,0,1,0,0.62,3.1397,3,2,1,FALSE,TRUE
s1014,78,16,1,0,0,0,1,1,0.01,2.5486,3,3,0,FALSE,FALSE
s1014,79,14,1,0,0,0,0,1,0.15375,2.2865,2,2,0,FALSE,FALSE
s1014,80,57,1,1,1,1,1,0,0.86625,3.7802,3,1,2,FALSE,TRUE
s1014,81,37,1,0,1,1,1,0,0.7225,3.1813,3,2,1,FALSE,TRUE
s1014,82,15,1,0,0,1,1,1,0.5225,3.5202,3,2,1,FALSE,TRUE
s1014,83,88,0,1,0,0,1,0,0.99375,1.9138,2,0,2,FALSE,FALSE
s1014,84,13,1,0,0,1,0,1,0.74,2.1728,2,1,1,FALSE,TRUE
s1014,85,72,1,1,0,0,0,0,0.09125,2.327,2,2,0,FALSE,FALSE
s1014,86,73,1,1,0,1,0,1,0.56875,2.4642,3,2,1,FALSE,TRUE
s1014,87,67,0,1,1,1,1,0,0.3325,3.1674,3,2,1,FALSE,TRUE
s1014,88,75,1,1,0,1,1,1,0.81625,2.0945,3,1,2,FALSE,TRUE
s1014,89,53,1,1,1,1,0,1,0.875,2.1598,3,1,2,FALSE,TRUE
s1014,90,18,1,0,0,0,1,0,0.02875,2.5425,2,2,0,FALSE,FALSE
s1014,91,17,1,0,0,1,1,0,0.55625,1.6977,2,1,1,FALSE,TRUE
s1014,92,56,1,1,1,0,1,1,0.82875,2.474,3,1,2,TRUE,TRUE
s1014,93,55,1,1,1,1,1,1,0.93625,2.2997,3,0,3,FALSE,FALSE
s1014,94,44,0,0,1,0,0,1,0.9925,2.4732,2,0,2,FALSE,FALSE
s1014,95,26,0,0,0,0,1,1,0.36875,3.3227,3,2,1,FALSE,TRUE
s1014,96,61,0,1,1,1,0,0,0.02,2.1858,3,3,0,FALSE,FALSE
s1014,97,74,1,1,0,0,0,1,0.00625,3.1828,3,3,0,FALSE,FALSE
s1014,98,68,0,1,1,0,1,0,0.91375,2.4118,3,1,2,FALSE,TRUE
s1014,99,86,0,1,0,0,1,1,0.91125,1.7679,3,1,2,FALSE,TRUE
